word1,color1,word2,color2,corr_resp,trials_1.thisRepN,trials_1.thisTrialN,trials_1.thisN,trials_1.thisIndex,trials_2.thisRepN,trials_2.thisTrialN,trials_2.thisN,trials_2.thisIndex,trials_3.thisRepN,trials_3.thisTrialN,trials_3.thisN,trials_3.thisIndex,trials_4.thisRepN,trials_4.thisTrialN,trials_4.thisN,trials_4.thisIndex,text_2.started,ins_.started,text_2.stopped,text_4.started,ins_.stopped,fixation.started,sti.started,fixation.stopped,sti.stopped,dist.started,dist.stopped,key_resp.started,key_resp.keys,key_resp.corr,key_resp.rt,text_3.started,text_3.stopped,participant,session,date,expName,psychopyVersion,frameRate
Orange,yellow,Kesari,blue,y,0,0,0,10,,,,,,,,,,,,,12.1067621,13.0931965,13.1100468,18.0918941,18.1078022,22.1228687,22.5893833,22.623012,23.5896816,23.5896816,25.0889998,25.0889998,y,1,0.623851,,,67894,1,2022-10-09_15h20.51.061,Stroop Task-Lab in Psychology (Group Project),2022.2.4,60.16677025
Red,red,Laal,orange,r,0,1,1,0,,,,,,,,,,,,,,,,,,25.7408672,26.2220462,26.2549628,27.2217495,27.2217495,28.7217668,28.7217668,r,1,0.6201835,,,67894,1,2022-10-09_15h20.51.061,Stroop Task-Lab in Psychology (Group Project),2022.2.4,60.16677025
Blue,red,Nila,yellow,r,0,2,2,6,,,,,,,,,,,,,,,,,,29.370906,29.8712702,29.8712702,30.8713047,30.8713047,32.3705913,32.3705913,r,1,0.4375846,,,67894,1,2022-10-09_15h20.51.061,Stroop Task-Lab in Psychology (Group Project),2022.2.4,60.16677025
Red,orange,Laal,red,o,0,3,3,2,,,,,,,,,,,,,,,,,,32.844419,33.3370964,33.3537872,34.3366761,34.3366761,35.8360995,35.8360995,o,1,0.4630155,,,67894,1,2022-10-09_15h20.51.061,Stroop Task-Lab in Psychology (Group Project),2022.2.4,60.16677025
Red,blue,Laal,yellow,b,0,4,4,3,,,,,,,,,,,,,,,,,,36.3194413,36.8196315,36.8196315,37.8192882,37.8192882,39.3189146,39.3189146,b,1,0.4448436,,,67894,1,2022-10-09_15h20.51.061,Stroop Task-Lab in Psychology (Group Project),2022.2.4,60.16677025
Kesari,orange,Orange,blue,b,0,5,5,11,,,,,,,,,,,,,,,,,,39.7853154,40.2852362,40.2852362,41.2849828,41.2849828,42.7847353,42.7847353,b,1,0.5502508,,,67894,1,2022-10-09_15h20.51.061,Stroop Task-Lab in Psychology (Group Project),2022.2.4,60.16677025
Laal,blue,Red,yellow,y,0,6,6,1,,,,,,,,,,,,,,,,,,43.3709993,43.8508484,43.8839772,44.8507322,44.8507322,46.3508075,46.3508075,y,1,0.4095248,,,67894,1,2022-10-09_15h20.51.061,Stroop Task-Lab in Psychology (Group Project),2022.2.4,60.16677025
Orange,yellow,Kesari,blue,y,0,7,7,10,,,,,,,,,,,,,,,,,,46.7935473,47.2836009,47.3001756,48.2833382,48.2833382,49.7829865,49.7829865,y,1,0.4540141,,,67894,1,2022-10-09_15h20.51.061,Stroop Task-Lab in Psychology (Group Project),2022.2.4,60.16677025
Red,blue,Laal,yellow,b,0,8,8,3,,,,,,,,,,,,,,,,,,50.2658738,50.7661522,50.7661522,51.7657226,51.7657226,53.2651026,53.2651026,b,1,0.5464092,,,67894,1,2022-10-09_15h20.51.061,Stroop Task-Lab in Psychology (Group Project),2022.2.4,60.16677025
Kesari,orange,Orange,blue,b,0,9,9,11,,,,,,,,,,,,,,,,,,53.8319672,54.3317585,54.3317585,55.3317564,55.3317564,56.8315133,56.8315133,b,1,0.5649219,,,67894,1,2022-10-09_15h20.51.061,Stroop Task-Lab in Psychology (Group Project),2022.2.4,60.16677025
Blue,red,Nila,yellow,r,0,10,10,6,,,,,,,,,,,,,,,,,,57.4143131,57.9143765,57.9143765,58.9145104,58.9145104,60.4136732,60.4136732,r,1,0.4705872,,,67894,1,2022-10-09_15h20.51.061,Stroop Task-Lab in Psychology (Group Project),2022.2.4,60.16677025
Laal,blue,Red,yellow,y,0,11,11,1,,,,,,,,,,,,,,,,,,60.9231838,61.4136553,61.429994,62.4131624,62.4131624,63.9129392,63.9129392,y,1,0.5342756,,,67894,1,2022-10-09_15h20.51.061,Stroop Task-Lab in Psychology (Group Project),2022.2.4,60.16677025
Yellow,yellow,Pila,blue,y,0,12,12,14,,,,,,,,,,,,,,,,,,64.4879376,64.9796224,64.9959639,65.9791187,65.9791187,67.4785852,67.4785852,y,1,0.4949368,,,67894,1,2022-10-09_15h20.51.061,Stroop Task-Lab in Psychology (Group Project),2022.2.4,60.16677025
Laal,blue,Red,yellow,y,0,13,13,1,,,,,,,,,,,,,,,,,,67.9948081,68.4949086,68.4949086,69.4949488,69.4949488,70.9942502,70.9942502,y,1,0.4441375,,,67894,1,2022-10-09_15h20.51.061,Stroop Task-Lab in Psychology (Group Project),2022.2.4,60.16677025
Orange,yellow,Kesari,blue,y,0,14,14,10,,,,,,,,,,,,,,,,,,71.461226,71.9610409,71.9610409,72.9607507,72.9607507,74.4599253,74.4599253,y,1,0.4167407,,,67894,1,2022-10-09_15h20.51.061,Stroop Task-Lab in Psychology (Group Project),2022.2.4,60.16677025
Orange,red,kesari,red,r,0,15,15,8,,,,,,,,,,,,,,,,,,74.8975556,75.3932353,75.4099203,76.3931234,76.3931234,77.8931841,77.8931841,r,1,0.4112881,,,67894,1,2022-10-09_15h20.51.061,Stroop Task-Lab in Psychology (Group Project),2022.2.4,60.16677025
Red,orange,Laal,red,o,1,0,16,2,,,,,,,,,,,,,,,,,,78.3351607,78.8258058,78.8427763,79.8261003,79.8261003,81.3254533,81.3254533,o,1,0.4682667,,,67894,1,2022-10-09_15h20.51.061,Stroop Task-Lab in Psychology (Group Project),2022.2.4,60.16677025
Kesari,blue,Orange,orange,o,1,1,17,9,,,,,,,,,,,,,,,,,,81.8350447,82.3249457,82.3415712,83.3249142,83.3249142,84.8248849,84.8248849,o,1,0.423611,,,67894,1,2022-10-09_15h20.51.061,Stroop Task-Lab in Psychology (Group Project),2022.2.4,60.16677025
Nila,orange,Blue,yellow,y,1,2,18,7,,,,,,,,,,,,,,,,,,85.2863237,85.7748034,85.7913347,86.7740944,86.7740944,88.2736067,88.2736067,y,1,0.4479143,,,67894,1,2022-10-09_15h20.51.061,Stroop Task-Lab in Psychology (Group Project),2022.2.4,60.16677025
Yellow,red,Pila,yellow,r,1,3,19,12,,,,,,,,,,,,,,,,,,88.7450088,89.2398777,89.2568145,90.2395238,90.2395238,91.739526,91.739526,r,1,0.5117473,,,67894,1,2022-10-09_15h20.51.061,Stroop Task-Lab in Psychology (Group Project),2022.2.4,60.16677025
Blue,blue,Nila,red,b,1,4,20,4,,,,,,,,,,,,,,,,,,92.2867666,92.7725755,92.7892004,93.7723109,93.7723109,95.2718875,95.2718875,b,1,0.4603714,,,67894,1,2022-10-09_15h20.51.061,Stroop Task-Lab in Psychology (Group Project),2022.2.4,60.16677025
Pila,blue,Yellow,orange,o,1,5,21,13,,,,,,,,,,,,,,,,,,95.7550627,96.2550382,96.2550382,97.255022,97.255022,98.7540224,98.7540224,o,1,0.496578,,,67894,1,2022-10-09_15h20.51.061,Stroop Task-Lab in Psychology (Group Project),2022.2.4,60.16677025
Yellow,yellow,Pila,blue,y,1,6,22,14,,,,,,,,,,,,,,,,,,99.2706296,99.7703491,99.7703491,100.770508,100.770508,102.2705379,102.2705379,y,1,0.5209973,,,67894,1,2022-10-09_15h20.51.061,Stroop Task-Lab in Psychology (Group Project),2022.2.4,60.16677025
Nila,orange,Blue,yellow,y,1,7,23,7,,,,,,,,,,,,,,,,,,102.8284168,103.3202909,103.3368791,104.3196558,104.3196558,105.8195731,105.8195731,y,1,0.5500705,,,67894,1,2022-10-09_15h20.51.061,Stroop Task-Lab in Psychology (Group Project),2022.2.4,60.16677025
Yellow,red,Pila,yellow,r,1,8,24,12,,,,,,,,,,,,,,,,,,106.3979884,106.8853982,106.9021515,107.885545,107.885545,109.385125,109.385125,r,1,0.399975,,,67894,1,2022-10-09_15h20.51.061,Stroop Task-Lab in Psychology (Group Project),2022.2.4,60.16677025
Laal,blue,Red,yellow,y,1,9,25,1,,,,,,,,,,,,,,,,,,109.8095496,110.3016759,110.3182299,111.3011367,111.3011367,112.8012573,112.8012573,y,1,0.4614486,,,67894,1,2022-10-09_15h20.51.061,Stroop Task-Lab in Psychology (Group Project),2022.2.4,60.16677025
Orange,red,kesari,red,r,1,10,26,8,,,,,,,,,,,,,,,,,,113.2839899,113.7674287,113.7842218,114.7675391,114.7675391,116.2670827,116.2836314,r,1,0.4555011,,,67894,1,2022-10-09_15h20.51.061,Stroop Task-Lab in Psychology (Group Project),2022.2.4,60.16677025
Red,orange,Laal,red,o,1,11,27,2,,,,,,,,,,,,,,,,,,116.7706056,117.266971,117.2833209,118.2667212,118.2667212,119.7656821,119.7656821,o,1,0.3501102,,,67894,1,2022-10-09_15h20.51.061,Stroop Task-Lab in Psychology (Group Project),2022.2.4,60.16677025
Kesari,orange,Orange,blue,b,1,12,28,11,,,,,,,,,,,,,,,,,,120.1462657,120.6325552,120.6493687,121.6322135,121.6322135,123.1314953,123.1314953,b,1,0.4143626,,,67894,1,2022-10-09_15h20.51.061,Stroop Task-Lab in Psychology (Group Project),2022.2.4,60.16677025
Pila,blue,Yellow,orange,o,1,13,29,13,,,,,,,,,,,,,,,,,,123.5645484,124.0647953,124.0647953,125.0648422,125.0648422,126.5647875,126.5647875,o,1,0.523161,,,67894,1,2022-10-09_15h20.51.061,Stroop Task-Lab in Psychology (Group Project),2022.2.4,60.16677025
Yellow,yellow,Pila,blue,y,1,14,30,14,,,,,,,,,,,,,,,,,,127.1174054,127.6137341,127.6307832,128.6138107,128.6138107,130.1134684,130.1134684,y,1,0.500604,,,67894,1,2022-10-09_15h20.51.061,Stroop Task-Lab in Psychology (Group Project),2022.2.4,60.16677025
Nila,red,Blue,orange,o,1,15,31,5,,,,,,,,,,,,,,,,,,130.639516,131.1302635,131.1465859,132.129982,132.129982,133.6297064,133.6297064,o,1,0.3900434,,,67894,1,2022-10-09_15h20.51.061,Stroop Task-Lab in Psychology (Group Project),2022.2.4,60.16677025
Nila,red,Blue,orange,o,2,0,32,5,,,,,,,,,,,,,,,,,,134.0458389,134.545735,134.545735,135.5455946,135.5455946,137.0444814,137.0444814,o,1,0.4042559,,,67894,1,2022-10-09_15h20.51.061,Stroop Task-Lab in Psychology (Group Project),2022.2.4,60.16677025
Nila,orange,Blue,yellow,y,2,1,33,7,,,,,,,,,,,,,,,,,,137.4786007,137.9780468,137.9780468,138.9779201,138.9779201,140.4775782,140.4775782,y,1,0.3596567,,,67894,1,2022-10-09_15h20.51.061,Stroop Task-Lab in Psychology (Group Project),2022.2.4,60.16677025
Orange,yellow,Kesari,blue,y,2,2,34,10,,,,,,,,,,,,,,,,,,140.8619678,141.3605794,141.3774424,142.3603536,142.3603536,143.8596613,143.8596613,y,1,0.4513744,,,67894,1,2022-10-09_15h20.51.061,Stroop Task-Lab in Psychology (Group Project),2022.2.4,60.16677025
Nila,red,Blue,orange,o,2,3,35,5,,,,,,,,,,,,,,,,,,144.3428219,144.8431881,144.8431881,145.8429789,145.8429789,147.3423607,147.3423607,o,1,0.4592608,,,67894,1,2022-10-09_15h20.51.061,Stroop Task-Lab in Psychology (Group Project),2022.2.4,60.16677025
Kesari,blue,Orange,orange,o,2,4,36,9,,,,,,,,,,,,,,,,,,147.8345632,148.3254497,148.3420538,149.3252086,149.3252086,150.8250704,150.8250704,o,1,0.5216435,,,67894,1,2022-10-09_15h20.51.061,Stroop Task-Lab in Psychology (Group Project),2022.2.4,60.16677025
Nila,orange,Blue,yellow,y,2,5,37,7,,,,,,,,,,,,,,,,,,151.3744305,151.8749692,151.8749692,152.8740447,152.8740447,154.3740388,154.3740388,y,1,0.6069011,,,67894,1,2022-10-09_15h20.51.061,Stroop Task-Lab in Psychology (Group Project),2022.2.4,60.16677025
Pila,orange,Yellow,blue,b,2,6,38,15,,,,,,,,,,,,,,,,,,155.007111,155.5075934,155.5075934,156.5069098,156.5069098,158.0063431,158.0063431,b,1,0.4770567,,,67894,1,2022-10-09_15h20.51.061,Stroop Task-Lab in Psychology (Group Project),2022.2.4,60.16677025
Blue,red,Nila,yellow,r,2,7,39,6,,,,,,,,,,,,,,,,,,158.5146105,159.00626,159.0230867,160.0062236,160.0062236,161.50571,161.50571,r,1,0.3823052,,,67894,1,2022-10-09_15h20.51.061,Stroop Task-Lab in Psychology (Group Project),2022.2.4,60.16677025
Yellow,red,Pila,yellow,r,2,8,40,12,,,,,,,,,,,,,,,,,,161.9065635,162.4056973,162.4225452,163.4054609,163.4054609,164.9050993,164.9050993,r,1,0.3949229,,,67894,1,2022-10-09_15h20.51.061,Stroop Task-Lab in Psychology (Group Project),2022.2.4,60.16677025
Blue,red,Nila,yellow,r,2,9,41,6,,,,,,,,,,,,,,,,,,165.3241448,165.8214513,165.8382032,166.8212469,166.8212469,168.3207211,168.3207211,r,1,0.3741512,,,67894,1,2022-10-09_15h20.51.061,Stroop Task-Lab in Psychology (Group Project),2022.2.4,60.16677025
Pila,blue,Yellow,orange,o,2,10,42,13,,,,,,,,,,,,,,,,,,168.7215675,169.2202951,169.2369663,170.2199323,170.2199323,171.7202379,171.7202379,o,1,0.4308508,,,67894,1,2022-10-09_15h20.51.061,Stroop Task-Lab in Psychology (Group Project),2022.2.4,60.16677025
Red,red,Laal,orange,r,2,11,43,0,,,,,,,,,,,,,,,,,,172.1762006,172.6696754,172.68614,173.6692161,173.6692161,175.1692836,175.1692836,r,1,0.4000456,,,67894,1,2022-10-09_15h20.51.061,Stroop Task-Lab in Psychology (Group Project),2022.2.4,60.16677025
Nila,red,Blue,orange,o,2,12,44,5,,,,,,,,,,,,,,,,,,175.5980631,176.0853392,176.1018652,177.085305,177.085305,178.5848835,178.5848835,o,1,0.4268021,,,67894,1,2022-10-09_15h20.51.061,Stroop Task-Lab in Psychology (Group Project),2022.2.4,60.16677025
Red,red,Laal,orange,r,2,13,45,0,,,,,,,,,,,,,,,,,,179.0345512,179.5343409,179.5343409,180.5344515,180.5344515,182.0342759,182.0342759,r,1,0.4636221,,,67894,1,2022-10-09_15h20.51.061,Stroop Task-Lab in Psychology (Group Project),2022.2.4,60.16677025
Kesari,blue,Orange,orange,o,2,14,46,9,,,,,,,,,,,,,,,,,,182.5211333,183.0183305,183.034089,184.0171968,184.0171968,185.5170224,185.5170224,o,1,0.4357614,,,67894,1,2022-10-09_15h20.51.061,Stroop Task-Lab in Psychology (Group Project),2022.2.4,60.16677025
Orange,red,kesari,red,r,2,15,47,8,,,,,,,,,,,,,,,,,,185.9921985,186.4830719,186.4999106,187.4827455,187.4827455,188.9823123,188.9823123,r,1,0.4428717,,,67894,1,2022-10-09_15h20.51.061,Stroop Task-Lab in Psychology (Group Project),2022.2.4,60.16677025
Pila,orange,Yellow,blue,b,3,0,48,15,,,,,,,,,,,,,,,,,,189.4541905,189.9484181,189.9653859,190.9484484,190.9484484,192.44829,192.44829,b,1,0.4925671,,,67894,1,2022-10-09_15h20.51.061,Stroop Task-Lab in Psychology (Group Project),2022.2.4,60.16677025
Red,red,Laal,orange,r,3,1,49,0,,,,,,,,,,,,,,,,,,192.9686822,193.464705,193.481645,194.4644071,194.4644071,195.9642517,195.9642517,r,1,0.4868243,,,67894,1,2022-10-09_15h20.51.061,Stroop Task-Lab in Psychology (Group Project),2022.2.4,60.16677025
Red,orange,Laal,red,o,3,2,50,2,,,,,,,,,,,,,,,,,,196.4804279,196.9805398,196.9805398,197.9801248,197.9801248,199.4797717,199.4797717,o,1,0.3604623,,,67894,1,2022-10-09_15h20.51.061,Stroop Task-Lab in Psychology (Group Project),2022.2.4,60.16677025
Pila,blue,Yellow,orange,o,3,3,51,13,,,,,,,,,,,,,,,,,,199.8715787,200.3628296,200.3796398,201.3626465,201.3626465,202.8625329,202.8625329,o,1,0.3216038,,,67894,1,2022-10-09_15h20.51.061,Stroop Task-Lab in Psychology (Group Project),2022.2.4,60.16677025
Red,blue,Laal,yellow,b,3,4,52,3,,,,,,,,,,,,,,,,,,203.218654,203.7119891,203.7289161,204.7119769,204.7119769,206.2115092,206.2115092,b,1,0.3617598,,,67894,1,2022-10-09_15h20.51.061,Stroop Task-Lab in Psychology (Group Project),2022.2.4,60.16677025
Kesari,orange,Orange,blue,b,3,5,53,11,,,,,,,,,,,,,,,,,,206.5953691,207.0947161,207.0947161,208.0945208,208.0945208,209.5935687,209.5935687,b,1,0.4275561,,,67894,1,2022-10-09_15h20.51.061,Stroop Task-Lab in Psychology (Group Project),2022.2.4,60.16677025
Blue,blue,Nila,red,b,3,6,54,4,,,,,,,,,,,,,,,,,,210.0504792,210.5438519,210.5602993,211.5437734,211.5437734,213.0430136,213.0430136,b,1,0.3619774,,,67894,1,2022-10-09_15h20.51.061,Stroop Task-Lab in Psychology (Group Project),2022.2.4,60.16677025
Red,blue,Laal,yellow,b,3,7,55,3,,,,,,,,,,,,,,,,,,213.4345849,213.926445,213.94309,214.9261949,214.9261949,216.4257391,216.4257391,b,1,0.3974059,,,67894,1,2022-10-09_15h20.51.061,Stroop Task-Lab in Psychology (Group Project),2022.2.4,60.16677025
Pila,orange,Yellow,blue,b,3,8,56,15,,,,,,,,,,,,,,,,,,216.8418257,217.3419694,217.3419694,218.341897,218.341897,219.8417651,219.8417651,b,1,0.3226023,,,67894,1,2022-10-09_15h20.51.061,Stroop Task-Lab in Psychology (Group Project),2022.2.4,60.16677025
Yellow,red,Pila,yellow,r,3,9,57,12,,,,,,,,,,,,,,,,,,220.1990965,220.6914822,220.7080323,221.6915622,221.6915622,223.2074231,223.1904432,r,1,0.3375502,,,67894,1,2022-10-09_15h20.51.061,Stroop Task-Lab in Psychology (Group Project),2022.2.4,60.16677025
Blue,blue,Nila,red,b,3,10,58,4,,,,,,,,,,,,,,,,,,223.5659591,224.0572402,224.0741692,225.057224,225.057224,226.5565646,226.5565646,b,1,0.3853978,,,67894,1,2022-10-09_15h20.51.061,Stroop Task-Lab in Psychology (Group Project),2022.2.4,60.16677025
Yellow,yellow,Pila,blue,y,3,11,59,14,,,,,,,,,,,,,,,,,,226.9809087,227.473091,227.4898878,228.4725601,228.4725601,229.9726877,229.9726877,y,1,0.5259307,,,67894,1,2022-10-09_15h20.51.061,Stroop Task-Lab in Psychology (Group Project),2022.2.4,60.16677025
Blue,blue,Nila,red,b,3,12,60,4,,,,,,,,,,,,,,,,,,230.5224409,231.0220617,231.0220617,232.0219956,232.0219956,233.5213318,233.5213318,b,1,0.4091535,,,67894,1,2022-10-09_15h20.51.061,Stroop Task-Lab in Psychology (Group Project),2022.2.4,60.16677025
Pila,orange,Yellow,blue,b,3,13,61,15,,,,,,,,,,,,,,,,,,233.9546166,234.4546391,234.4546391,235.4543789,235.4543789,236.9542604,236.9542604,b,1,0.4293481,,,67894,1,2022-10-09_15h20.51.061,Stroop Task-Lab in Psychology (Group Project),2022.2.4,60.16677025
Kesari,blue,Orange,orange,o,3,14,62,9,,,,,,,,,,,,,,,,,,237.4097973,237.9039405,237.9206662,238.90347,238.90347,240.4032329,240.4032329,o,1,0.3408574,,,67894,1,2022-10-09_15h20.51.061,Stroop Task-Lab in Psychology (Group Project),2022.2.4,60.16677025
Orange,red,kesari,red,r,3,15,63,8,,,,,,,,,,,,,,,,,,240.7692643,241.2697704,241.2697704,242.2696751,242.2696751,243.7688065,243.7688065,r,1,0.335162,,,67894,1,2022-10-09_15h20.51.061,Stroop Task-Lab in Psychology (Group Project),2022.2.4,60.16677025
Red,red,Laal,orange,r,,,,,0,0,0,0,,,,,,,,,,,,,,244.1567437,244.6355782,244.6688748,245.6354406,245.6354406,247.1350026,247.1350026,r,1,0.3109186,,,67894,1,2022-10-09_15h20.51.061,Stroop Task-Lab in Psychology (Group Project),2022.2.4,60.16677025
Laal,blue,Red,yellow,y,,,,,0,1,1,1,,,,,,,,,,,,,,247.4679928,247.9681107,247.9681107,248.9678593,248.9678593,250.4674565,250.4674565,y,1,0.3755272,,,67894,1,2022-10-09_15h20.51.061,Stroop Task-Lab in Psychology (Group Project),2022.2.4,60.16677025
Red,orange,Laal,red,o,,,,,0,2,2,2,,,,,,,,,,,,,,250.8738693,251.3672332,251.3841025,252.3667796,252.3667796,253.8666554,253.8666554,o,1,0.3239045,,,67894,1,2022-10-09_15h20.51.061,Stroop Task-Lab in Psychology (Group Project),2022.2.4,60.16677025
Red,blue,Laal,yellow,b,,,,,0,3,3,3,,,,,,,,,,,,,,254.2163213,254.716619,254.716619,255.7165702,255.7165702,257.2159659,257.2159659,b,1,0.3576703,,,67894,1,2022-10-09_15h20.51.061,Stroop Task-Lab in Psychology (Group Project),2022.2.4,60.16677025
Blue,blue,Nila,red,b,,,,,0,4,4,4,,,,,,,,,,,,,,257.5988525,258.0987419,258.0987419,259.0986512,259.0986512,260.5980131,260.5980131,b,1,0.3200847,,,67894,1,2022-10-09_15h20.51.061,Stroop Task-Lab in Psychology (Group Project),2022.2.4,60.16677025
Nila,red,Blue,orange,o,,,,,0,5,5,5,,,,,,,,,,,,,,260.9479324,261.4480661,261.4480661,262.4479101,262.4479101,263.9476985,263.9476985,o,1,0.2810788,,,67894,1,2022-10-09_15h20.51.061,Stroop Task-Lab in Psychology (Group Project),2022.2.4,60.16677025
Blue,red,Nila,yellow,r,,,,,0,6,6,6,,,,,,,,,,,,,,264.2520276,264.7473604,264.7639102,265.7467465,265.7467465,267.2465077,267.2465077,r,1,0.3101806,,,67894,1,2022-10-09_15h20.51.061,Stroop Task-Lab in Psychology (Group Project),2022.2.4,60.16677025
Nila,orange,Blue,yellow,y,,,,,0,7,7,7,,,,,,,,,,,,,,267.5856927,268.0800931,268.0962362,269.0792176,269.0792176,270.5791961,270.5791961,y,1,0.3488491,,,67894,1,2022-10-09_15h20.51.061,Stroop Task-Lab in Psychology (Group Project),2022.2.4,60.16677025
Orange,red,kesari,red,r,,,,,0,8,8,8,,,,,,,,,,,,,,270.9457681,271.4456614,271.4456614,272.4455068,272.4455068,273.9446171,273.9446171,r,1,0.3604065,,,67894,1,2022-10-09_15h20.51.061,Stroop Task-Lab in Psychology (Group Project),2022.2.4,60.16677025
Kesari,blue,Orange,orange,o,,,,,0,9,9,9,,,,,,,,,,,,,,274.3384864,274.8285562,274.8448512,275.8278075,275.8278075,277.327566,277.327566,o,1,0.3518866,,,67894,1,2022-10-09_15h20.51.061,Stroop Task-Lab in Psychology (Group Project),2022.2.4,60.16677025
Orange,yellow,Kesari,blue,y,,,,,0,10,10,10,,,,,,,,,,,,,,277.7194523,278.210424,278.2270903,279.2104862,279.2104862,280.7097226,280.7097226,y,1,0.3406891,,,67894,1,2022-10-09_15h20.51.061,Stroop Task-Lab in Psychology (Group Project),2022.2.4,60.16677025
Kesari,orange,Orange,blue,b,,,,,0,11,11,11,,,,,,,,,,,,,,281.0848624,281.576441,281.5931654,282.5762237,282.5762237,284.0758402,284.0758402,b,1,0.3992694,,,67894,1,2022-10-09_15h20.51.061,Stroop Task-Lab in Psychology (Group Project),2022.2.4,60.16677025
Yellow,red,Pila,yellow,r,,,,,0,12,12,12,,,,,,,,,,,,,,284.4939543,284.9924252,285.008966,285.9921238,285.9921238,287.4917632,287.4917632,r,1,0.343967,,,67894,1,2022-10-09_15h20.51.061,Stroop Task-Lab in Psychology (Group Project),2022.2.4,60.16677025
Pila,blue,Yellow,orange,o,,,,,0,13,13,13,,,,,,,,,,,,,,287.8690975,288.3586039,288.3749835,289.358213,289.358213,290.8575584,290.8575584,o,1,0.3312144,,,67894,1,2022-10-09_15h20.51.061,Stroop Task-Lab in Psychology (Group Project),2022.2.4,60.16677025
Yellow,yellow,Pila,blue,y,,,,,0,14,14,14,,,,,,,,,,,,,,291.2149027,291.7072403,291.7239444,292.7069825,292.7069825,294.2065196,294.2065196,y,1,0.3749111,,,67894,1,2022-10-09_15h20.51.061,Stroop Task-Lab in Psychology (Group Project),2022.2.4,60.16677025
Pila,orange,Yellow,blue,b,,,,,0,15,15,15,,,,,,,,,,,,,,294.6110957,295.1065816,295.123232,296.106136,296.106136,297.6060359,297.6060359,b,1,0.3854804,,,67894,1,2022-10-09_15h20.51.061,Stroop Task-Lab in Psychology (Group Project),2022.2.4,60.16677025
Red,red,Laal,orange,r,,,,,1,0,16,0,,,,,,,,,,,,,,298.0282913,298.5226683,298.5393183,299.5225546,299.5225546,301.0384041,301.0217855,r,1,0.3616636,,,67894,1,2022-10-09_15h20.51.061,Stroop Task-Lab in Psychology (Group Project),2022.2.4,60.16677025
Laal,blue,Red,yellow,y,,,,,1,1,17,1,,,,,,,,,,,,,,301.410697,301.9048847,301.9211264,302.9045632,302.9045632,304.4046794,304.4046794,y,1,0.3304936,,,67894,1,2022-10-09_15h20.51.061,Stroop Task-Lab in Psychology (Group Project),2022.2.4,60.16677025
Red,orange,Laal,red,o,,,,,1,2,18,2,,,,,,,,,,,,,,304.7615787,305.2540681,305.2712091,306.2537548,306.2537548,307.7533844,307.7533844,o,1,0.3252077,,,67894,1,2022-10-09_15h20.51.061,Stroop Task-Lab in Psychology (Group Project),2022.2.4,60.16677025
Red,blue,Laal,yellow,b,,,,,1,3,19,3,,,,,,,,,,,,,,308.1034111,308.6033414,308.6033414,309.6029157,309.6029157,311.1026729,311.1026729,b,1,0.3567061,,,67894,1,2022-10-09_15h20.51.061,Stroop Task-Lab in Psychology (Group Project),2022.2.4,60.16677025
Blue,blue,Nila,red,b,,,,,1,4,20,4,,,,,,,,,,,,,,311.4930666,311.9858508,312.0027815,312.9854204,312.9854204,314.4849641,314.4849641,b,1,0.3086553,,,67894,1,2022-10-09_15h20.51.061,Stroop Task-Lab in Psychology (Group Project),2022.2.4,60.16677025
Nila,red,Blue,orange,o,,,,,1,5,21,5,,,,,,,,,,,,,,314.8271022,315.3186274,315.3348842,316.318334,316.318334,317.8181812,317.8181812,o,1,0.2667725,,,67894,1,2022-10-09_15h20.51.061,Stroop Task-Lab in Psychology (Group Project),2022.2.4,60.16677025
Blue,red,Nila,yellow,r,,,,,1,6,22,6,,,,,,,,,,,,,,318.111625,318.6008713,318.6174393,319.6005349,319.6005349,321.1002053,321.1002053,r,1,0.304042,,,67894,1,2022-10-09_15h20.51.061,Stroop Task-Lab in Psychology (Group Project),2022.2.4,60.16677025
Nila,orange,Blue,yellow,y,,,,,1,7,23,7,,,,,,,,,,,,,,321.4332434,321.93371,321.93371,322.9331356,322.9331356,324.4329048,324.4329048,y,1,0.4135994,,,67894,1,2022-10-09_15h20.51.061,Stroop Task-Lab in Psychology (Group Project),2022.2.4,60.16677025
Orange,red,kesari,red,r,,,,,1,8,24,8,,,,,,,,,,,,,,324.8659051,325.3661646,325.3661646,326.3659608,326.3659608,327.8813652,327.8647712,r,1,0.3978794,,,67894,1,2022-10-09_15h20.51.061,Stroop Task-Lab in Psychology (Group Project),2022.2.4,60.16677025
Kesari,blue,Orange,orange,o,,,,,1,9,25,9,,,,,,,,,,,,,,328.2911514,328.7816483,328.7983297,329.7814954,329.7814954,331.2812842,331.2812842,o,1,0.369846,,,67894,1,2022-10-09_15h20.51.061,Stroop Task-Lab in Psychology (Group Project),2022.2.4,60.16677025
Orange,yellow,Kesari,blue,y,,,,,1,10,26,10,,,,,,,,,,,,,,331.6899347,332.1807234,332.1978026,333.1808694,333.1808694,334.6800088,334.6800088,y,1,0.2964066,,,67894,1,2022-10-09_15h20.51.061,Stroop Task-Lab in Psychology (Group Project),2022.2.4,60.16677025
Kesari,orange,Orange,blue,b,,,,,1,11,27,11,,,,,,,,,,,,,,335.0082922,335.4967779,335.5136958,336.4967367,336.4967367,337.9963126,337.9963126,b,1,0.3965789,,,67894,1,2022-10-09_15h20.51.061,Stroop Task-Lab in Psychology (Group Project),2022.2.4,60.16677025
Yellow,red,Pila,yellow,r,,,,,1,12,28,12,,,,,,,,,,,,,,338.4125883,338.9128618,338.9128618,339.9121632,339.9121632,341.411764,341.411764,r,1,0.3112989,,,67894,1,2022-10-09_15h20.51.061,Stroop Task-Lab in Psychology (Group Project),2022.2.4,60.16677025
Pila,blue,Yellow,orange,o,,,,,1,13,29,13,,,,,,,,,,,,,,341.7503129,342.2451279,342.2616928,343.2448759,343.2448759,344.7444225,344.7444225,o,1,0.2607984,,,67894,1,2022-10-09_15h20.51.061,Stroop Task-Lab in Psychology (Group Project),2022.2.4,60.16677025
Yellow,yellow,Pila,blue,y,,,,,1,14,30,14,,,,,,,,,,,,,,345.0361396,345.5275119,345.5442384,346.5270389,346.5270389,348.0273443,348.0273443,y,1,0.3002185,,,67894,1,2022-10-09_15h20.51.061,Stroop Task-Lab in Psychology (Group Project),2022.2.4,60.16677025
Pila,orange,Yellow,blue,b,,,,,1,15,31,15,,,,,,,,,,,,,,348.3600049,348.8601199,348.8601199,349.859952,349.859952,351.3597077,351.3597077,b,1,0.3320183,,,67894,1,2022-10-09_15h20.51.061,Stroop Task-Lab in Psychology (Group Project),2022.2.4,60.16677025
Red,red,Laal,orange,r,,,,,2,0,32,0,,,,,,,,,,,,,,351.7091207,352.2094409,352.2094409,353.2090722,353.2090722,354.7089864,354.7089864,r,1,0.2894308,,,67894,1,2022-10-09_15h20.51.061,Stroop Task-Lab in Psychology (Group Project),2022.2.4,60.16677025
Laal,blue,Red,yellow,y,,,,,2,1,33,1,,,,,,,,,,,,,,355.0333429,355.5253713,355.5417971,356.5251522,356.5251522,358.0245653,358.0245653,y,1,0.3513822,,,67894,1,2022-10-09_15h20.51.061,Stroop Task-Lab in Psychology (Group Project),2022.2.4,60.16677025
Red,orange,Laal,red,o,,,,,2,2,34,2,,,,,,,,,,,,,,358.418735,358.9071865,358.9242868,359.9070985,359.9070985,361.4070567,361.4070567,o,1,0.2655382,,,67894,1,2022-10-09_15h20.51.061,Stroop Task-Lab in Psychology (Group Project),2022.2.4,60.16677025
Red,blue,Laal,yellow,b,,,,,2,3,35,3,,,,,,,,,,,,,,361.6905664,362.1900122,362.1900122,363.1900085,363.1900085,364.6895224,364.6895224,b,1,0.2866839,,,67894,1,2022-10-09_15h20.51.061,Stroop Task-Lab in Psychology (Group Project),2022.2.4,60.16677025
Blue,blue,Nila,red,b,,,,,2,4,36,4,,,,,,,,,,,,,,365.014096,365.5061078,365.5228838,366.5061923,366.5061923,368.0054741,368.0054741,b,1,0.3578679,,,67894,1,2022-10-09_15h20.51.061,Stroop Task-Lab in Psychology (Group Project),2022.2.4,60.16677025
Nila,red,Blue,orange,o,,,,,2,5,37,5,,,,,,,,,,,,,,368.3926965,368.8884369,368.905351,369.888283,369.888283,371.3878183,371.3878183,o,1,0.5444321,,,67894,1,2022-10-09_15h20.51.061,Stroop Task-Lab in Psychology (Group Project),2022.2.4,60.16677025
Blue,red,Nila,yellow,r,,,,,2,6,38,6,,,,,,,,,,,,,,371.9622209,372.4542793,372.4709904,373.4539615,373.4539615,374.9538331,374.9538331,r,1,0.2885165,,,67894,1,2022-10-09_15h20.51.061,Stroop Task-Lab in Psychology (Group Project),2022.2.4,60.16677025
Nila,orange,Blue,yellow,y,,,,,2,7,39,7,,,,,,,,,,,,,,375.2698392,375.7704707,375.7704707,376.7700038,376.7700038,378.2697618,378.2697618,y,1,0.3263147,,,67894,1,2022-10-09_15h20.51.061,Stroop Task-Lab in Psychology (Group Project),2022.2.4,60.16677025
Orange,red,kesari,red,r,,,,,2,8,40,8,,,,,,,,,,,,,,378.6197737,379.1194541,379.1194541,380.1191685,380.1191685,381.6183562,381.6183562,r,1,0.277602,,,67894,1,2022-10-09_15h20.51.061,Stroop Task-Lab in Psychology (Group Project),2022.2.4,60.16677025
Kesari,blue,Orange,orange,o,,,,,2,9,41,9,,,,,,,,,,,,,,381.9266593,382.4186129,382.4349381,383.4181286,383.4181286,384.9180695,384.9180695,o,1,0.2938345,,,67894,1,2022-10-09_15h20.51.061,Stroop Task-Lab in Psychology (Group Project),2022.2.4,60.16677025
Orange,yellow,Kesari,blue,y,,,,,2,10,42,10,,,,,,,,,,,,,,385.2342537,385.7345243,385.7345243,386.7342829,386.7342829,388.2339414,388.2339414,y,1,0.2429241,,,67894,1,2022-10-09_15h20.51.061,Stroop Task-Lab in Psychology (Group Project),2022.2.4,60.16677025
Kesari,orange,Orange,blue,b,,,,,2,11,43,11,,,,,,,,,,,,,,388.5078839,389.0003106,389.0171697,390.0000059,390.0000059,391.4996421,391.4996421,b,1,0.3246247,,,67894,1,2022-10-09_15h20.51.061,Stroop Task-Lab in Psychology (Group Project),2022.2.4,60.16677025
Yellow,red,Pila,yellow,r,,,,,2,12,44,12,,,,,,,,,,,,,,391.8579732,392.3492473,392.3659503,393.3488477,393.3488477,394.8489045,394.8489045,r,1,0.2745711,,,67894,1,2022-10-09_15h20.51.061,Stroop Task-Lab in Psychology (Group Project),2022.2.4,60.16677025
Pila,blue,Yellow,orange,o,,,,,2,13,45,13,,,,,,,,,,,,,,395.1489087,395.6488682,395.6488682,396.6485321,396.6485321,398.1480845,398.1480845,o,1,0.3717506,,,67894,1,2022-10-09_15h20.51.061,Stroop Task-Lab in Psychology (Group Project),2022.2.4,60.16677025
Yellow,yellow,Pila,blue,y,,,,,2,14,46,14,,,,,,,,,,,,,,398.5561619,399.048075,399.0648746,400.0477079,400.0477079,401.5476083,401.5476083,y,1,0.2686664,,,67894,1,2022-10-09_15h20.51.061,Stroop Task-Lab in Psychology (Group Project),2022.2.4,60.16677025
Pila,orange,Yellow,blue,b,,,,,2,15,47,15,,,,,,,,,,,,,,401.8538867,402.3465655,402.3632684,403.3469467,403.3469467,404.8468064,404.8468064,b,1,0.3182657,,,67894,1,2022-10-09_15h20.51.061,Stroop Task-Lab in Psychology (Group Project),2022.2.4,60.16677025
Red,red,Laal,orange,r,,,,,3,0,48,0,,,,,,,,,,,,,,405.2025472,405.6962577,405.7130049,406.6963142,406.6963142,408.1956966,408.1956966,r,1,0.3274601,,,67894,1,2022-10-09_15h20.51.061,Stroop Task-Lab in Psychology (Group Project),2022.2.4,60.16677025
Laal,blue,Red,yellow,y,,,,,3,1,49,1,,,,,,,,,,,,,,408.5472199,409.0458322,409.0621406,410.0455389,410.0455389,411.5448807,411.5448807,y,1,0.4143841,,,67894,1,2022-10-09_15h20.51.061,Stroop Task-Lab in Psychology (Group Project),2022.2.4,60.16677025
Red,orange,Laal,red,o,,,,,3,2,50,2,,,,,,,,,,,,,,411.993105,412.4777512,412.4946209,413.4777853,413.4777853,414.9775018,414.9775018,r,0,0.2867737,,,67894,1,2022-10-09_15h20.51.061,Stroop Task-Lab in Psychology (Group Project),2022.2.4,60.16677025
Red,blue,Laal,yellow,b,,,,,3,3,51,3,,,,,,,,,,,,,,415.2941038,415.7935025,415.7935025,416.7935427,416.7935427,418.29311,418.29311,b,1,0.285324,,,67894,1,2022-10-09_15h20.51.061,Stroop Task-Lab in Psychology (Group Project),2022.2.4,60.16677025
Blue,blue,Nila,red,b,,,,,3,4,52,4,,,,,,,,,,,,,,418.6183435,419.1095778,419.1261591,420.1093472,420.1093472,421.6087905,421.6087905,b,1,0.2681212,,,67894,1,2022-10-09_15h20.51.061,Stroop Task-Lab in Psychology (Group Project),2022.2.4,60.16677025
Nila,red,Blue,orange,o,,,,,3,5,53,5,,,,,,,,,,,,,,421.9154798,422.4089802,422.4256908,423.4087725,423.4087725,424.9081752,424.9081752,o,1,0.2703707,,,67894,1,2022-10-09_15h20.51.061,Stroop Task-Lab in Psychology (Group Project),2022.2.4,60.16677025
Blue,red,Nila,yellow,r,,,,,3,6,54,6,,,,,,,,,,,,,,425.2080654,425.7078608,425.7078608,426.7078711,426.7078711,428.2077427,428.2077427,r,1,0.2544095,,,67894,1,2022-10-09_15h20.51.061,Stroop Task-Lab in Psychology (Group Project),2022.2.4,60.16677025
Nila,orange,Blue,yellow,y,,,,,3,7,55,7,,,,,,,,,,,,,,428.4904822,428.9906319,428.9906319,429.9904662,429.9904662,431.4895855,431.4895855,y,1,0.44729,,,67894,1,2022-10-09_15h20.51.061,Stroop Task-Lab in Psychology (Group Project),2022.2.4,60.16677025
Orange,red,kesari,red,r,,,,,3,8,56,8,,,,,,,,,,,,,,431.9694142,432.4565871,432.472929,433.4559248,433.4559248,434.9557738,434.9557738,r,1,0.3270602,,,67894,1,2022-10-09_15h20.51.061,Stroop Task-Lab in Psychology (Group Project),2022.2.4,60.16677025
Kesari,blue,Orange,orange,o,,,,,3,9,57,9,,,,,,,,,,,,,,435.3144144,435.8057664,435.8222987,436.8053512,436.8053512,438.3053332,438.3053332,o,1,0.2760809,,,67894,1,2022-10-09_15h20.51.061,Stroop Task-Lab in Psychology (Group Project),2022.2.4,60.16677025
Orange,yellow,Kesari,blue,y,,,,,3,10,58,10,,,,,,,,,,,,,,438.6185694,439.1047921,439.1217503,440.1042344,440.1042344,441.6041148,441.6041148,y,1,0.339711,,,67894,1,2022-10-09_15h20.51.061,Stroop Task-Lab in Psychology (Group Project),2022.2.4,60.16677025
Kesari,orange,Orange,blue,b,,,,,3,11,59,11,,,,,,,,,,,,,,441.9704856,442.4706101,442.4706101,443.4701268,443.4701268,444.9697919,444.9697919,b,1,0.2926838,,,67894,1,2022-10-09_15h20.51.061,Stroop Task-Lab in Psychology (Group Project),2022.2.4,60.16677025
Yellow,red,Pila,yellow,r,,,,,3,12,60,12,,,,,,,,,,,,,,445.2928967,445.7865152,445.8033276,446.7864002,446.7864002,448.2859695,448.2859695,r,1,0.3141489,,,67894,1,2022-10-09_15h20.51.061,Stroop Task-Lab in Psychology (Group Project),2022.2.4,60.16677025
Pila,blue,Yellow,orange,o,,,,,3,13,61,13,,,,,,,,,,,,,,448.6280969,449.118846,449.1359403,450.1188935,450.1188935,451.6184919,451.6184919,o,1,0.3572617,,,67894,1,2022-10-09_15h20.51.061,Stroop Task-Lab in Psychology (Group Project),2022.2.4,60.16677025
Yellow,yellow,Pila,blue,y,,,,,3,14,62,14,,,,,,,,,,,,,,452.0076455,452.5010974,452.5177891,453.5011744,453.5011744,455.0008743,455.0008743,y,1,0.2596452,,,67894,1,2022-10-09_15h20.51.061,Stroop Task-Lab in Psychology (Group Project),2022.2.4,60.16677025
Pila,orange,Yellow,blue,b,,,,,3,15,63,15,,,,,,,,,,,,,,455.2890834,455.7841203,455.8008619,456.7839006,456.7839006,458.2830396,458.2830396,b,1,0.3655087,,,67894,1,2022-10-09_15h20.51.061,Stroop Task-Lab in Psychology (Group Project),2022.2.4,60.16677025
Nila,red,Blue,orange,o,,,,,,,,,0,0,0,5,,,,,,,,,,458.688523,459.1665449,459.2000256,460.1662717,460.1662717,461.6659472,461.6659472,o,1,0.3392037,,,67894,1,2022-10-09_15h20.51.061,Stroop Task-Lab in Psychology (Group Project),2022.2.4,60.16677025
Blue,blue,Nila,red,b,,,,,,,,,0,1,1,4,,,,,,,,,,462.0386163,462.5323985,462.549145,463.5318807,463.5318807,465.0318052,465.0318052,b,1,0.3214477,,,67894,1,2022-10-09_15h20.51.061,Stroop Task-Lab in Psychology (Group Project),2022.2.4,60.16677025
Blue,blue,Nila,red,b,,,,,,,,,0,2,2,4,,,,,,,,,,465.3814246,465.8816643,465.8816643,466.8815449,466.8815449,468.3812472,468.3812472,b,1,0.2831348,,,67894,1,2022-10-09_15h20.51.061,Stroop Task-Lab in Psychology (Group Project),2022.2.4,60.16677025
Nila,orange,Blue,yellow,y,,,,,,,,,0,3,3,7,,,,,,,,,,468.6975634,469.1808583,469.1977779,470.1972446,470.1972446,471.696506,471.696506,y,1,0.4071911,,,67894,1,2022-10-09_15h20.51.061,Stroop Task-Lab in Psychology (Group Project),2022.2.4,60.16677025
Pila,orange,Yellow,blue,b,,,,,,,,,0,4,4,15,,,,,,,,,,472.1367453,472.6301939,472.646596,473.6298741,473.6298741,475.1292937,475.1292937,b,1,1.2229274,,,67894,1,2022-10-09_15h20.51.061,Stroop Task-Lab in Psychology (Group Project),2022.2.4,60.16677025
Laal,blue,Red,yellow,y,,,,,,,,,0,5,5,1,,,,,,,,,,476.3858623,476.878583,476.8952863,477.8786324,477.8786324,479.3782535,479.3782535,y,1,0.4952031,,,67894,1,2022-10-09_15h20.51.061,Stroop Task-Lab in Psychology (Group Project),2022.2.4,60.16677025
Red,orange,Laal,red,o,,,,,,,,,0,6,6,2,,,,,,,,,,479.8947437,480.3947986,480.3947986,481.3944657,481.3944657,482.8940947,482.8940947,o,1,0.35077,,,67894,1,2022-10-09_15h20.51.061,Stroop Task-Lab in Psychology (Group Project),2022.2.4,60.16677025
Red,blue,Laal,yellow,b,,,,,,,,,0,7,7,3,,,,,,,,,,483.2772699,483.7773159,483.7773159,484.7773778,484.7773778,486.2927738,486.2761198,b,1,0.4675702,,,67894,1,2022-10-09_15h20.51.061,Stroop Task-Lab in Psychology (Group Project),2022.2.4,60.16677025
Kesari,blue,Orange,orange,o,,,,,,,,,0,8,8,9,,,,,,,,,,486.7770642,487.2598317,487.2763764,488.2594251,488.2594251,489.7592479,489.7592479,o,1,0.4598605,,,67894,1,2022-10-09_15h20.51.061,Stroop Task-Lab in Psychology (Group Project),2022.2.4,60.16677025
Nila,red,Blue,orange,o,,,,,,,,,0,9,9,5,,,,,,,,,,490.251131,490.7422628,490.7589427,491.7419513,491.7419513,493.241215,493.241215,o,1,0.3638955,,,67894,1,2022-10-09_15h20.51.061,Stroop Task-Lab in Psychology (Group Project),2022.2.4,60.16677025
Nila,red,Blue,orange,o,,,,,,,,,0,10,10,5,,,,,,,,,,493.6247334,494.1244886,494.1244886,495.1243463,495.1243463,496.6238492,496.6238492,o,1,1.5689603,,,67894,1,2022-10-09_15h20.51.061,Stroop Task-Lab in Psychology (Group Project),2022.2.4,60.16677025
Nila,orange,Blue,yellow,y,,,,,,,,,0,11,11,7,,,,,,,,,,498.2239843,498.723093,498.723093,499.7230867,499.7230867,501.2231262,501.2231262,y,1,0.5321046,,,67894,1,2022-10-09_15h20.51.061,Stroop Task-Lab in Psychology (Group Project),2022.2.4,60.16677025
Laal,blue,Red,yellow,y,,,,,,,,,0,12,12,1,,,,,,,,,,501.7802459,502.2723302,502.289396,503.2724396,503.2724396,504.7721544,504.7721544,y,1,0.5200191,,,67894,1,2022-10-09_15h20.51.061,Stroop Task-Lab in Psychology (Group Project),2022.2.4,60.16677025
Pila,orange,Yellow,blue,b,,,,,,,,,0,13,13,15,,,,,,,,,,505.3273886,505.8219087,505.8385346,506.8213175,506.8213175,508.3214201,508.3214201,b,1,0.3814168,,,67894,1,2022-10-09_15h20.51.061,Stroop Task-Lab in Psychology (Group Project),2022.2.4,60.16677025
Kesari,blue,Orange,orange,o,,,,,,,,,0,14,14,9,,,,,,,,,,508.7311933,509.2209925,509.2375466,510.220844,510.220844,511.7204111,511.7204111,o,1,0.5078186,,,67894,1,2022-10-09_15h20.51.061,Stroop Task-Lab in Psychology (Group Project),2022.2.4,60.16677025
Orange,yellow,Kesari,blue,y,,,,,,,,,0,15,15,10,,,,,,,,,,512.2536069,512.753571,512.753571,513.7530432,513.7530432,515.2528234,515.2528234,y,1,0.2622298,,,67894,1,2022-10-09_15h20.51.061,Stroop Task-Lab in Psychology (Group Project),2022.2.4,60.16677025
Nila,orange,Blue,yellow,y,,,,,,,,,1,0,16,7,,,,,,,,,,515.5442263,516.0361098,516.0530893,517.0360074,517.0360074,518.5350564,518.5350564,y,1,0.633096,,,67894,1,2022-10-09_15h20.51.061,Stroop Task-Lab in Psychology (Group Project),2022.2.4,60.16677025
Nila,red,Blue,orange,o,,,,,,,,,1,1,17,5,,,,,,,,,,519.1850457,519.6852148,519.6852148,520.6848221,520.6848221,522.1845778,522.1845778,o,1,0.3328116,,,67894,1,2022-10-09_15h20.51.061,Stroop Task-Lab in Psychology (Group Project),2022.2.4,60.16677025
Yellow,red,Pila,yellow,r,,,,,,,,,1,2,18,12,,,,,,,,,,522.5425651,523.0341672,523.0509969,524.0338825,524.0338825,525.53359,525.53359,r,1,0.3439334,,,67894,1,2022-10-09_15h20.51.061,Stroop Task-Lab in Psychology (Group Project),2022.2.4,60.16677025
Blue,red,Nila,yellow,r,,,,,,,,,1,3,19,6,,,,,,,,,,525.9079564,526.4003961,526.4168136,527.3999164,527.3999164,528.8994973,528.8994973,r,1,0.3378063,,,67894,1,2022-10-09_15h20.51.061,Stroop Task-Lab in Psychology (Group Project),2022.2.4,60.16677025
Red,orange,Laal,red,o,,,,,,,,,1,4,20,2,,,,,,,,,,529.2760008,529.765895,529.7827028,530.7657484,530.7657484,532.2655417,532.2655417,o,1,0.2836592,,,67894,1,2022-10-09_15h20.51.061,Stroop Task-Lab in Psychology (Group Project),2022.2.4,60.16677025
Pila,blue,Yellow,orange,o,,,,,,,,,1,5,21,13,,,,,,,,,,532.5711544,533.0651197,533.0816,534.0650192,534.0650192,535.5644145,535.5644145,o,1,0.6243607,,,67894,1,2022-10-09_15h20.51.061,Stroop Task-Lab in Psychology (Group Project),2022.2.4,60.16677025
Kesari,orange,Orange,blue,b,,,,,,,,,1,6,22,11,,,,,,,,,,536.2142055,536.7140698,536.7140698,537.7140836,537.7140836,539.213329,539.213329,b,1,0.3415625,,,67894,1,2022-10-09_15h20.51.061,Stroop Task-Lab in Psychology (Group Project),2022.2.4,60.16677025
Yellow,red,Pila,yellow,r,,,,,,,,,1,7,23,12,,,,,,,,,,539.5881718,540.0801329,540.0967964,541.0798058,541.0798058,542.5795413,542.5795413,r,1,0.2709863,,,67894,1,2022-10-09_15h20.51.061,Stroop Task-Lab in Psychology (Group Project),2022.2.4,60.16677025
Red,orange,Laal,red,o,,,,,,,,,1,8,24,2,,,,,,,,,,542.8801626,543.3790768,543.3790768,544.3785846,544.3785846,545.8786886,545.8786886,o,1,0.4268097,,,67894,1,2022-10-09_15h20.51.061,Stroop Task-Lab in Psychology (Group Project),2022.2.4,60.16677025
Red,blue,Laal,yellow,b,,,,,,,,,1,9,25,3,,,,,,,,,,546.3286224,546.828634,546.828634,547.8284181,547.8284181,549.3276471,549.3276471,r,0,0.630822,,,67894,1,2022-10-09_15h20.51.061,Stroop Task-Lab in Psychology (Group Project),2022.2.4,60.16677025
Orange,red,kesari,red,r,,,,,,,,,1,10,26,8,,,,,,,,,,549.9834146,550.4778677,550.4946852,551.4774786,551.4774786,552.9772257,552.9772257,r,1,0.2856286,,,67894,1,2022-10-09_15h20.51.061,Stroop Task-Lab in Psychology (Group Project),2022.2.4,60.16677025
Yellow,red,Pila,yellow,r,,,,,,,,,1,11,27,12,,,,,,,,,,553.3027723,553.7932158,553.8100064,554.7930397,554.7930397,556.2927931,556.2927931,r,1,0.4852787,,,67894,1,2022-10-09_15h20.51.061,Stroop Task-Lab in Psychology (Group Project),2022.2.4,60.16677025
Laal,blue,Red,yellow,y,,,,,,,,,1,12,28,1,,,,,,,,,,556.8089023,557.3092797,557.3092797,558.309338,558.309338,559.8086925,559.8086925,y,1,0.3919831,,,67894,1,2022-10-09_15h20.51.061,Stroop Task-Lab in Psychology (Group Project),2022.2.4,60.16677025
Blue,blue,Nila,red,b,,,,,,,,,1,13,29,4,,,,,,,,,,560.2509148,560.7249618,560.7585043,561.7248573,561.7248573,563.2248002,563.2248002,b,1,0.4974055,,,67894,1,2022-10-09_15h20.51.061,Stroop Task-Lab in Psychology (Group Project),2022.2.4,60.16677025
Red,red,Laal,orange,r,,,,,,,,,1,14,30,0,,,,,,,,,,563.7476099,564.2409613,564.2577895,565.2405418,565.2405418,566.740686,566.740686,r,1,0.3920705,,,67894,1,2022-10-09_15h20.51.061,Stroop Task-Lab in Psychology (Group Project),2022.2.4,60.16677025
Kesari,orange,Orange,blue,b,,,,,,,,,1,15,31,11,,,,,,,,,,567.1641468,567.6564857,567.6732728,568.6565795,568.6565795,570.1561769,570.1561769,b,1,0.3373503,,,67894,1,2022-10-09_15h20.51.061,Stroop Task-Lab in Psychology (Group Project),2022.2.4,60.16677025
Red,blue,Laal,yellow,b,,,,,,,,,2,0,32,3,,,,,,,,,,570.5278845,571.0228203,571.0393839,572.0225943,572.0225943,573.521702,573.521702,b,1,0.3441357,,,67894,1,2022-10-09_15h20.51.061,Stroop Task-Lab in Psychology (Group Project),2022.2.4,60.16677025
Yellow,yellow,Pila,blue,y,,,,,,,,,2,1,33,14,,,,,,,,,,573.900365,574.3884853,574.4052454,575.3882186,575.3882186,576.8878243,576.8878243,y,1,0.3210224,,,67894,1,2022-10-09_15h20.51.061,Stroop Task-Lab in Psychology (Group Project),2022.2.4,60.16677025
Orange,red,kesari,red,r,,,,,,,,,2,2,34,8,,,,,,,,,,577.2470922,577.7377379,577.7546777,578.7372564,578.7372564,580.2371119,580.2371119,r,1,0.3462516,,,67894,1,2022-10-09_15h20.51.061,Stroop Task-Lab in Psychology (Group Project),2022.2.4,60.16677025
Nila,orange,Blue,yellow,y,,,,,,,,,2,3,35,7,,,,,,,,,,580.6033916,581.1033777,581.1033777,582.1032824,582.1032824,583.6030004,583.6030004,y,1,0.7287976,,,67894,1,2022-10-09_15h20.51.061,Stroop Task-Lab in Psychology (Group Project),2022.2.4,60.16677025
Yellow,yellow,Pila,blue,y,,,,,,,,,2,4,36,14,,,,,,,,,,584.3629435,584.8523678,584.8689681,585.851912,585.851912,587.35214,587.35214,y,1,0.6187535,,,67894,1,2022-10-09_15h20.51.061,Stroop Task-Lab in Psychology (Group Project),2022.2.4,60.16677025
Pila,orange,Yellow,blue,b,,,,,,,,,2,5,37,15,,,,,,,,,,588.001534,588.5016373,588.5016373,589.5014372,589.5014372,591.0008395,591.0008395,b,1,0.4255737,,,67894,1,2022-10-09_15h20.51.061,Stroop Task-Lab in Psychology (Group Project),2022.2.4,60.16677025
Yellow,red,Pila,yellow,r,,,,,,,,,2,6,38,12,,,,,,,,,,591.4522782,591.9509378,591.9676843,592.9507497,592.9507497,594.4502131,594.4502131,r,1,0.2973309,,,67894,1,2022-10-09_15h20.51.061,Stroop Task-Lab in Psychology (Group Project),2022.2.4,60.16677025
Orange,yellow,Kesari,blue,y,,,,,,,,,2,7,39,10,,,,,,,,,,594.777719,595.2667921,595.2834006,596.2665,596.2665,597.7660276,597.7660276,y,1,0.4709882,,,67894,1,2022-10-09_15h20.51.061,Stroop Task-Lab in Psychology (Group Project),2022.2.4,60.16677025
Laal,blue,Red,yellow,y,,,,,,,,,2,8,40,1,,,,,,,,,,598.2681857,598.765892,598.7826377,599.76575,599.76575,601.2655499,601.2655499,y,1,0.5307115,,,67894,1,2022-10-09_15h20.51.061,Stroop Task-Lab in Psychology (Group Project),2022.2.4,60.16677025
Kesari,orange,Orange,blue,b,,,,,,,,,2,9,41,11,,,,,,,,,,601.8242463,602.3153027,602.3317855,603.3148741,603.3148741,604.8144074,604.8144074,b,1,0.4161712,,,67894,1,2022-10-09_15h20.51.061,Stroop Task-Lab in Psychology (Group Project),2022.2.4,60.16677025
Kesari,blue,Orange,orange,o,,,,,,,,,2,10,42,9,,,,,,,,,,605.2474345,605.7478196,605.7478196,606.7470686,606.7470686,608.2468686,608.2468686,o,1,0.4652563,,,67894,1,2022-10-09_15h20.51.061,Stroop Task-Lab in Psychology (Group Project),2022.2.4,60.16677025
Red,red,Laal,orange,r,,,,,,,,,2,11,43,0,,,,,,,,,,608.7301679,609.2301647,609.2301647,610.2299091,610.2299091,611.7455568,611.7288066,r,1,0.5554642,,,67894,1,2022-10-09_15h20.51.061,Stroop Task-Lab in Psychology (Group Project),2022.2.4,60.16677025
Orange,yellow,Kesari,blue,y,,,,,,,,,2,12,44,10,,,,,,,,,,612.3229063,612.8124659,612.8289455,613.8119163,613.8119163,615.3118206,615.3118206,y,1,0.3646857,,,67894,1,2022-10-09_15h20.51.061,Stroop Task-Lab in Psychology (Group Project),2022.2.4,60.16677025
Kesari,blue,Orange,orange,o,,,,,,,,,2,13,45,9,,,,,,,,,,615.703566,616.1949646,616.2112608,617.1947558,617.1947558,618.6941265,618.6941265,o,1,0.4736773,,,67894,1,2022-10-09_15h20.51.061,Stroop Task-Lab in Psychology (Group Project),2022.2.4,60.16677025
Red,blue,Laal,yellow,b,,,,,,,,,2,14,46,3,,,,,,,,,,619.1983536,619.6940274,619.71063,620.6937381,620.6937381,622.1934039,622.1934039,b,1,0.4575944,,,67894,1,2022-10-09_15h20.51.061,Stroop Task-Lab in Psychology (Group Project),2022.2.4,60.16677025
Orange,yellow,Kesari,blue,y,,,,,,,,,2,15,47,10,,,,,,,,,,622.6878066,623.1764791,623.1932073,624.1759172,624.1759172,625.6756814,625.6756814,y,1,0.4775435,,,67894,1,2022-10-09_15h20.51.061,Stroop Task-Lab in Psychology (Group Project),2022.2.4,60.16677025
Blue,red,Nila,yellow,r,,,,,,,,,3,0,48,6,,,,,,,,,,626.1810054,626.6758715,626.6927521,627.6758332,627.6758332,629.174989,629.174989,r,1,0.3613073,,,67894,1,2022-10-09_15h20.51.061,Stroop Task-Lab in Psychology (Group Project),2022.2.4,60.16677025
Orange,red,kesari,red,r,,,,,,,,,3,1,49,8,,,,,,,,,,629.56945,630.0581536,630.0749299,631.0579304,631.0579304,632.5575082,632.5575082,r,1,0.346919,,,67894,1,2022-10-09_15h20.51.061,Stroop Task-Lab in Psychology (Group Project),2022.2.4,60.16677025
Blue,red,Nila,yellow,r,,,,,,,,,3,2,50,6,,,,,,,,,,632.9344888,633.4244025,633.4407431,634.4240623,634.4240623,635.9232184,635.9232184,r,1,0.3017236,,,67894,1,2022-10-09_15h20.51.061,Stroop Task-Lab in Psychology (Group Project),2022.2.4,60.16677025
Yellow,yellow,Pila,blue,y,,,,,,,,,3,3,51,14,,,,,,,,,,636.2670294,636.7568899,636.7732706,637.7559802,637.7559802,639.2561896,639.2561896,y,1,0.3587502,,,67894,1,2022-10-09_15h20.51.061,Stroop Task-Lab in Psychology (Group Project),2022.2.4,60.16677025
Kesari,orange,Orange,blue,b,,,,,,,,,3,4,52,11,,,,,,,,,,639.6487614,640.1391347,640.1557542,641.1388097,641.1388097,642.6384968,642.6384968,b,1,0.3555132,,,67894,1,2022-10-09_15h20.51.061,Stroop Task-Lab in Psychology (Group Project),2022.2.4,60.16677025
Blue,blue,Nila,red,b,,,,,,,,,3,5,53,4,,,,,,,,,,643.0226671,643.5213881,643.5213881,644.5212396,644.5212396,646.0210144,646.0210144,b,1,0.3284232,,,67894,1,2022-10-09_15h20.51.061,Stroop Task-Lab in Psychology (Group Project),2022.2.4,60.16677025
Yellow,yellow,Pila,blue,y,,,,,,,,,3,6,54,14,,,,,,,,,,646.3722678,646.8705132,646.8872206,647.8705372,647.8705372,649.3702753,649.3702753,y,1,0.280079,,,67894,1,2022-10-09_15h20.51.061,Stroop Task-Lab in Psychology (Group Project),2022.2.4,60.16677025
Pila,blue,Yellow,orange,o,,,,,,,,,3,7,55,13,,,,,,,,,,649.679356,650.1694194,650.1864318,651.1692753,651.1692753,652.6692549,652.6692549,o,1,0.6192716,,,67894,1,2022-10-09_15h20.51.061,Stroop Task-Lab in Psychology (Group Project),2022.2.4,60.16677025
Pila,orange,Yellow,blue,b,,,,,,,,,3,8,56,15,,,,,,,,,,653.3189451,653.8194521,653.8194521,654.8189124,654.8189124,656.3182947,656.3182947,b,1,0.3648739,,,67894,1,2022-10-09_15h20.51.061,Stroop Task-Lab in Psychology (Group Project),2022.2.4,60.16677025
Blue,red,Nila,yellow,r,,,,,,,,,3,9,57,6,,,,,,,,,,656.7086331,657.2016903,657.2181402,658.2013285,658.2013285,659.7009883,659.7009883,r,1,0.3509677,,,67894,1,2022-10-09_15h20.51.061,Stroop Task-Lab in Psychology (Group Project),2022.2.4,60.16677025
Red,red,Laal,orange,r,,,,,,,,,3,10,58,0,,,,,,,,,,660.0953025,660.5840381,660.6005619,661.5838818,661.5838818,663.0835053,663.0835053,r,1,0.3452021,,,67894,1,2022-10-09_15h20.51.061,Stroop Task-Lab in Psychology (Group Project),2022.2.4,60.16677025
Orange,red,kesari,red,r,,,,,,,,,3,11,59,8,,,,,,,,,,663.4502287,663.9503656,663.9503656,664.9501083,664.9501083,666.4495804,666.4495804,r,1,0.3078363,,,67894,1,2022-10-09_15h20.51.061,Stroop Task-Lab in Psychology (Group Project),2022.2.4,60.16677025
Red,orange,Laal,red,o,,,,,,,,,3,12,60,2,,,,,,,,,,666.7825714,667.2659221,667.2823581,668.282284,668.282284,669.7815341,669.7815341,o,1,0.3818021,,,67894,1,2022-10-09_15h20.51.061,Stroop Task-Lab in Psychology (Group Project),2022.2.4,60.16677025
Pila,blue,Yellow,orange,o,,,,,,,,,3,13,61,13,,,,,,,,,,670.190979,670.6817811,670.6980051,671.6816307,671.6816307,673.1813078,673.1813078,o,1,0.3000565,,,67894,1,2022-10-09_15h20.51.061,Stroop Task-Lab in Psychology (Group Project),2022.2.4,60.16677025
Pila,blue,Yellow,orange,o,,,,,,,,,3,14,62,13,,,,,,,,,,673.4978732,673.9970392,673.9970392,674.9970949,674.9970949,676.4971001,676.4971001,o,1,0.315906,,,67894,1,2022-10-09_15h20.51.061,Stroop Task-Lab in Psychology (Group Project),2022.2.4,60.16677025
Red,red,Laal,orange,r,,,,,,,,,3,15,63,0,,,,,,,,,,676.8375623,677.3303342,677.3467344,678.3297632,678.3297632,679.8296652,679.8296652,r,1,0.4224125,,,67894,1,2022-10-09_15h20.51.061,Stroop Task-Lab in Psychology (Group Project),2022.2.4,60.16677025
Red,red,Laal,orange,r,,,,,,,,,,,,,0,0,0,0,,,,,,680.2813367,680.7790805,680.796072,681.778628,681.778628,683.2781068,683.2781068,r,1,0.365542,,,67894,1,2022-10-09_15h20.51.061,Stroop Task-Lab in Psychology (Group Project),2022.2.4,60.16677025
Laal,blue,Red,yellow,y,,,,,,,,,,,,,0,1,1,1,,,,,,683.6659008,684.161632,684.1781116,685.161263,685.161263,686.6610491,686.6610491,y,1,0.375725,,,67894,1,2022-10-09_15h20.51.061,Stroop Task-Lab in Psychology (Group Project),2022.2.4,60.16677025
Red,orange,Laal,red,o,,,,,,,,,,,,,0,2,2,2,,,,,,687.0671373,687.5608353,687.5774121,688.560682,688.560682,690.0602227,690.0602227,o,1,0.4540965,,,67894,1,2022-10-09_15h20.51.061,Stroop Task-Lab in Psychology (Group Project),2022.2.4,60.16677025
Red,blue,Laal,yellow,b,,,,,,,,,,,,,0,3,3,3,,,,,,690.5429765,691.0267638,691.0433688,692.0428066,692.0428066,693.5429821,693.5429821,b,1,0.3914187,,,67894,1,2022-10-09_15h20.51.061,Stroop Task-Lab in Psychology (Group Project),2022.2.4,60.16677025
Blue,blue,Nila,red,b,,,,,,,,,,,,,0,4,4,4,,,,,,693.9683525,694.4593713,694.4759787,695.4590718,695.4590718,696.9588901,696.9588901,b,1,0.4195636,,,67894,1,2022-10-09_15h20.51.061,Stroop Task-Lab in Psychology (Group Project),2022.2.4,60.16677025
Nila,red,Blue,orange,o,,,,,,,,,,,,,0,5,5,5,,,,,,697.4136474,697.9085376,697.9251585,698.9079835,698.9079835,700.4076757,700.4076757,o,1,0.4653393,,,67894,1,2022-10-09_15h20.51.061,Stroop Task-Lab in Psychology (Group Project),2022.2.4,60.16677025
Blue,red,Nila,yellow,r,,,,,,,,,,,,,0,6,6,6,,,,,,700.8947102,701.3910348,701.4078087,702.3909679,702.3909679,703.8902157,703.8902157,r,1,0.4436169,,,67894,1,2022-10-09_15h20.51.061,Stroop Task-Lab in Psychology (Group Project),2022.2.4,60.16677025
Nila,orange,Blue,yellow,y,,,,,,,,,,,,,0,7,7,7,,,,,,704.3668193,704.8565938,704.8729224,705.8561642,705.8561642,707.356036,707.356036,y,1,0.4019898,,,67894,1,2022-10-09_15h20.51.061,Stroop Task-Lab in Psychology (Group Project),2022.2.4,60.16677025
Orange,red,kesari,red,r,,,,,,,,,,,,,0,8,8,8,,,,,,707.7933559,708.2888705,708.3056877,709.2889361,709.2889361,710.788938,710.788938,r,1,0.3564817,,,67894,1,2022-10-09_15h20.51.061,Stroop Task-Lab in Psychology (Group Project),2022.2.4,60.16677025
Kesari,blue,Orange,orange,o,,,,,,,,,,,,,0,9,9,9,,,,,,711.1805267,711.6716873,711.6881305,712.6714878,712.6714878,714.1709526,714.1709526,o,1,0.3235092,,,67894,1,2022-10-09_15h20.51.061,Stroop Task-Lab in Psychology (Group Project),2022.2.4,60.16677025
Orange,yellow,Kesari,blue,y,,,,,,,,,,,,,0,10,10,10,,,,,,714.5402433,715.0209548,715.0544579,716.0206196,716.0206196,717.5203671,717.5203671,y,1,0.3718028,,,67894,1,2022-10-09_15h20.51.061,Stroop Task-Lab in Psychology (Group Project),2022.2.4,60.16677025
Kesari,orange,Orange,blue,b,,,,,,,,,,,,,0,11,11,11,,,,,,717.9266433,718.4198364,718.4368251,719.4198179,719.4198179,720.9188684,720.9188684,b,1,0.4109269,,,67894,1,2022-10-09_15h20.51.061,Stroop Task-Lab in Psychology (Group Project),2022.2.4,60.16677025
Yellow,red,Pila,yellow,r,,,,,,,,,,,,,0,12,12,12,,,,,,721.3559277,721.852662,721.8696818,722.8524516,722.8524516,724.3517878,724.3517878,r,1,0.368006,,,67894,1,2022-10-09_15h20.51.061,Stroop Task-Lab in Psychology (Group Project),2022.2.4,60.16677025
Pila,blue,Yellow,orange,o,,,,,,,,,,,,,0,13,13,13,,,,,,724.7518682,725.2517983,725.2517983,726.2514363,726.2514363,727.7510551,727.7510551,o,1,0.3864955,,,67894,1,2022-10-09_15h20.51.061,Stroop Task-Lab in Psychology (Group Project),2022.2.4,60.16677025
Yellow,yellow,Pila,blue,y,,,,,,,,,,,,,0,14,14,14,,,,,,728.1875977,728.6678117,728.7010346,729.6675649,729.6675649,731.1669492,731.1669492,y,1,0.3659188,,,67894,1,2022-10-09_15h20.51.061,Stroop Task-Lab in Psychology (Group Project),2022.2.4,60.16677025
Pila,orange,Yellow,blue,b,,,,,,,,,,,,,0,15,15,15,,,,,,731.5499811,732.0501054,732.0501054,733.0493419,733.0493419,734.5497285,734.5497285,b,1,0.430173,,,67894,1,2022-10-09_15h20.51.061,Stroop Task-Lab in Psychology (Group Project),2022.2.4,60.16677025
Red,red,Laal,orange,r,,,,,,,,,,,,,1,0,16,0,,,,,,735.0080822,735.4988614,735.5156831,736.4986646,736.4986646,737.9986201,737.9986201,r,1,0.3807451,,,67894,1,2022-10-09_15h20.51.061,Stroop Task-Lab in Psychology (Group Project),2022.2.4,60.16677025
Laal,blue,Red,yellow,y,,,,,,,,,,,,,1,1,17,1,,,,,,738.4051303,738.8985775,738.9153683,739.8982411,739.8982411,741.3974147,741.3974147,y,1,0.412729,,,67894,1,2022-10-09_15h20.51.061,Stroop Task-Lab in Psychology (Group Project),2022.2.4,60.16677025
Red,orange,Laal,red,o,,,,,,,,,,,,,1,2,18,2,,,,,,741.8309379,742.3305157,742.3305157,743.3304267,743.3304267,744.8304715,744.8304715,o,1,0.3355677,,,67894,1,2022-10-09_15h20.51.061,Stroop Task-Lab in Psychology (Group Project),2022.2.4,60.16677025
Red,blue,Laal,yellow,b,,,,,,,,,,,,,1,3,19,3,,,,,,745.1968879,745.6966862,745.6966862,746.6964928,746.6964928,748.195928,748.195928,b,1,0.4264979,,,67894,1,2022-10-09_15h20.51.061,Stroop Task-Lab in Psychology (Group Project),2022.2.4,60.16677025
Blue,blue,Nila,red,b,,,,,,,,,,,,,1,4,20,4,,,,,,748.6458938,749.1458852,749.1458852,750.1456562,750.1456562,751.644838,751.644838,b,1,0.2811953,,,67894,1,2022-10-09_15h20.51.061,Stroop Task-Lab in Psychology (Group Project),2022.2.4,60.16677025
Nila,red,Blue,orange,o,,,,,,,,,,,,,1,5,21,5,,,,,,751.9531355,752.4452614,752.4615281,753.4448587,753.4448587,754.9445011,754.9445011,o,1,0.3947043,,,67894,1,2022-10-09_15h20.51.061,Stroop Task-Lab in Psychology (Group Project),2022.2.4,60.16677025
Blue,red,Nila,yellow,r,,,,,,,,,,,,,1,6,22,6,,,,,,755.3607835,755.8605748,755.8605748,756.8607009,756.8607009,758.3602894,758.3602894,r,1,0.3194129,,,67894,1,2022-10-09_15h20.51.061,Stroop Task-Lab in Psychology (Group Project),2022.2.4,60.16677025
Nila,orange,Blue,yellow,y,,,,,,,,,,,,,1,7,23,7,,,,,,758.716323,759.2103028,759.2267365,760.2101355,760.2101355,761.7093566,761.7093566,y,1,0.3280979,,,67894,1,2022-10-09_15h20.51.061,Stroop Task-Lab in Psychology (Group Project),2022.2.4,60.16677025
Orange,red,kesari,red,r,,,,,,,,,,,,,1,8,24,8,,,,,,762.0595975,762.5590277,762.5590277,763.5587146,763.5587146,765.0587235,765.0587235,r,1,0.9413065,,,67894,1,2022-10-09_15h20.51.061,Stroop Task-Lab in Psychology (Group Project),2022.2.4,60.16677025
Kesari,blue,Orange,orange,o,,,,,,,,,,,,,1,9,25,9,,,,,,766.0350696,766.5249479,766.5416088,767.5248557,767.5248557,769.0245406,769.0245406,o,1,0.4688321,,,67894,1,2022-10-09_15h20.51.061,Stroop Task-Lab in Psychology (Group Project),2022.2.4,60.16677025
Orange,yellow,Kesari,blue,y,,,,,,,,,,,,,1,10,26,10,,,,,,769.5309105,770.0242484,770.0408735,771.0239754,771.0239754,772.5233695,772.5233695,y,1,1.1010092,,,67894,1,2022-10-09_15h20.51.061,Stroop Task-Lab in Psychology (Group Project),2022.2.4,60.16677025
Kesari,orange,Orange,blue,b,,,,,,,,,,,,,1,11,27,11,,,,,,773.6666428,774.1562536,774.1728492,775.156044,775.156044,776.6556259,776.6556259,b,1,0.8815008,,,67894,1,2022-10-09_15h20.51.061,Stroop Task-Lab in Psychology (Group Project),2022.2.4,60.16677025
Yellow,red,Pila,yellow,r,,,,,,,,,,,,,1,12,28,12,,,,,,777.5643057,778.0557597,778.0724611,779.0554951,779.0554951,780.5547704,780.5547704,r,1,0.4799749,,,67894,1,2022-10-09_15h20.51.061,Stroop Task-Lab in Psychology (Group Project),2022.2.4,60.16677025
Pila,blue,Yellow,orange,o,,,,,,,,,,,,,1,13,29,13,,,,,,781.0599531,781.5546394,781.5716253,782.5546044,782.5546044,784.0543644,784.0543644,o,1,0.4312785,,,67894,1,2022-10-09_15h20.51.061,Stroop Task-Lab in Psychology (Group Project),2022.2.4,60.16677025
Yellow,yellow,Pila,blue,y,,,,,,,,,,,,,1,14,30,14,,,,,,784.5132522,785.0038176,785.0202116,786.0032699,786.0032699,787.5033963,787.5033963,y,1,0.8014968,,,67894,1,2022-10-09_15h20.51.061,Stroop Task-Lab in Psychology (Group Project),2022.2.4,60.16677025
Pila,orange,Yellow,blue,b,,,,,,,,,,,,,1,15,31,15,,,,,,788.3391641,788.8361856,788.8528731,789.8360274,789.8360274,791.3352305,791.3352305,b,1,1.1193196,,,67894,1,2022-10-09_15h20.51.061,Stroop Task-Lab in Psychology (Group Project),2022.2.4,60.16677025
Red,red,Laal,orange,r,,,,,,,,,,,,,2,0,32,0,,,,,,792.4916198,792.9850857,793.0018267,793.9847009,793.9847009,795.4845952,795.4845952,r,1,1.2096765,,,67894,1,2022-10-09_15h20.51.061,Stroop Task-Lab in Psychology (Group Project),2022.2.4,60.16677025
Laal,blue,Red,yellow,y,,,,,,,,,,,,,2,1,33,1,,,,,,796.7171127,797.2175162,797.2175162,798.2173014,798.2173014,799.7168637,799.7168637,y,1,0.4631271,,,67894,1,2022-10-09_15h20.51.061,Stroop Task-Lab in Psychology (Group Project),2022.2.4,60.16677025
Red,orange,Laal,red,o,,,,,,,,,,,,,2,2,34,2,,,,,,800.2070889,800.6999377,800.7167715,801.6993947,801.6993947,803.199345,803.199345,o,1,0.4158039,,,67894,1,2022-10-09_15h20.51.061,Stroop Task-Lab in Psychology (Group Project),2022.2.4,60.16677025
Red,blue,Laal,yellow,b,,,,,,,,,,,,,2,3,35,3,,,,,,803.6324871,804.132669,804.132669,805.13227,805.13227,806.6317716,806.6317716,b,1,0.6584791,,,67894,1,2022-10-09_15h20.51.061,Stroop Task-Lab in Psychology (Group Project),2022.2.4,60.16677025
Blue,blue,Nila,red,b,,,,,,,,,,,,,2,4,36,4,,,,,,807.3261788,807.8149004,807.8315926,808.8143176,808.8143176,810.3144989,810.3144989,b,1,0.6231165,,,67894,1,2022-10-09_15h20.51.061,Stroop Task-Lab in Psychology (Group Project),2022.2.4,60.16677025
Nila,red,Blue,orange,o,,,,,,,,,,,,,2,5,37,5,,,,,,810.9705343,811.4640585,811.4807033,812.4637552,812.4637552,813.9631475,813.9631475,o,1,0.4481793,,,67894,1,2022-10-09_15h20.51.061,Stroop Task-Lab in Psychology (Group Project),2022.2.4,60.16677025
Blue,red,Nila,yellow,r,,,,,,,,,,,,,2,6,38,6,,,,,,814.4373031,814.9299212,814.946474,815.9290722,815.9290722,817.4289503,817.4289503,r,1,0.4266409,,,67894,1,2022-10-09_15h20.51.061,Stroop Task-Lab in Psychology (Group Project),2022.2.4,60.16677025
Nila,orange,Blue,yellow,y,,,,,,,,,,,,,2,7,39,7,,,,,,817.8868375,818.3787741,818.3955017,819.3791501,819.3791501,820.8785779,820.8785779,y,1,0.3645887,,,67894,1,2022-10-09_15h20.51.061,Stroop Task-Lab in Psychology (Group Project),2022.2.4,60.16677025
Orange,red,kesari,red,r,,,,,,,,,,,,,2,8,40,8,,,,,,821.2676684,821.7617541,821.7784084,822.7616742,822.7616742,824.2605307,824.2605307,r,1,0.372217,,,67894,1,2022-10-09_15h20.51.061,Stroop Task-Lab in Psychology (Group Project),2022.2.4,60.16677025
Kesari,blue,Orange,orange,o,,,,,,,,,,,,,2,9,41,9,,,,,,824.6618589,825.1606559,825.1773097,826.1604216,826.1604216,827.6600527,827.6600527,o,1,0.3619572,,,67894,1,2022-10-09_15h20.51.061,Stroop Task-Lab in Psychology (Group Project),2022.2.4,60.16677025
Orange,yellow,Kesari,blue,y,,,,,,,,,,,,,2,10,42,10,,,,,,828.0541102,828.5432058,828.5598633,829.5429355,829.5429355,831.0424423,831.0424423,y,1,0.3141313,,,67894,1,2022-10-09_15h20.51.061,Stroop Task-Lab in Psychology (Group Project),2022.2.4,60.16677025
Kesari,orange,Orange,blue,b,,,,,,,,,,,,,2,11,43,11,,,,,,831.3923296,831.8757196,831.89218,832.8757647,832.8757647,834.375271,834.375271,b,1,0.421728,,,67894,1,2022-10-09_15h20.51.061,Stroop Task-Lab in Psychology (Group Project),2022.2.4,60.16677025
Yellow,red,Pila,yellow,r,,,,,,,,,,,,,2,12,44,12,,,,,,834.8295255,835.3252294,835.3417339,836.3243219,836.3243219,837.8241187,837.8241187,r,1,0.3990615,,,67894,1,2022-10-09_15h20.51.061,Stroop Task-Lab in Psychology (Group Project),2022.2.4,60.16677025
Pila,blue,Yellow,orange,o,,,,,,,,,,,,,2,13,45,13,,,,,,838.2414036,838.7406288,838.7406288,839.7399692,839.7399692,841.2401169,841.2401169,o,1,0.4770152,,,67894,1,2022-10-09_15h20.51.061,Stroop Task-Lab in Psychology (Group Project),2022.2.4,60.16677025
Yellow,yellow,Pila,blue,y,,,,,,,,,,,,,2,14,46,14,,,,,,841.7439741,842.2398759,842.2565015,843.2398209,843.2398209,844.7393261,844.7393261,y,1,0.4042726,,,67894,1,2022-10-09_15h20.51.061,Stroop Task-Lab in Psychology (Group Project),2022.2.4,60.16677025
Pila,orange,Yellow,blue,b,,,,,,,,,,,,,2,15,47,15,,,,,,845.1739549,845.6723458,845.6891791,846.6724127,846.6724127,848.1716702,848.1716702,b,1,0.4370037,,,67894,1,2022-10-09_15h20.51.061,Stroop Task-Lab in Psychology (Group Project),2022.2.4,60.16677025
Red,red,Laal,orange,r,,,,,,,,,,,,,3,0,48,0,,,,,,848.6382128,849.1381295,849.1381295,850.1375918,850.1375918,851.6370572,851.6370572,r,1,0.4846625,,,67894,1,2022-10-09_15h20.51.061,Stroop Task-Lab in Psychology (Group Project),2022.2.4,60.16677025
Laal,blue,Red,yellow,y,,,,,,,,,,,,,3,1,49,1,,,,,,852.153474,852.6371871,852.6537173,853.6370437,853.6370437,855.1366744,855.153362,y,1,0.2706798,,,67894,1,2022-10-09_15h20.51.061,Stroop Task-Lab in Psychology (Group Project),2022.2.4,60.16677025
Red,orange,Laal,red,o,,,,,,,,,,,,,3,2,50,2,,,,,,855.4647217,855.9531334,855.9696864,856.9531034,856.9531034,858.4525193,858.4525193,o,1,0.4429079,,,67894,1,2022-10-09_15h20.51.061,Stroop Task-Lab in Psychology (Group Project),2022.2.4,60.16677025
Red,blue,Laal,yellow,b,,,,,,,,,,,,,3,3,51,3,,,,,,858.918972,859.4185297,859.4185297,860.4183846,860.4183846,861.9183899,861.9183899,b,1,0.4254285,,,67894,1,2022-10-09_15h20.51.061,Stroop Task-Lab in Psychology (Group Project),2022.2.4,60.16677025
Blue,blue,Nila,red,b,,,,,,,,,,,,,3,4,52,4,,,,,,862.379094,862.8683863,862.8848057,863.8680731,863.8680731,865.3674929,865.3674929,b,1,0.3405241,,,67894,1,2022-10-09_15h20.51.061,Stroop Task-Lab in Psychology (Group Project),2022.2.4,60.16677025
Nila,red,Blue,orange,o,,,,,,,,,,,,,3,5,53,5,,,,,,865.7341366,866.2341092,866.2341092,867.2337304,867.2337304,868.732909,868.732909,o,1,0.3829997,,,67894,1,2022-10-09_15h20.51.061,Stroop Task-Lab in Psychology (Group Project),2022.2.4,60.16677025
Blue,red,Nila,yellow,r,,,,,,,,,,,,,3,6,54,6,,,,,,869.1406093,869.6329486,869.6496007,870.6331143,870.6331143,872.1326912,872.1326912,r,1,0.3992931,,,67894,1,2022-10-09_15h20.51.061,Stroop Task-Lab in Psychology (Group Project),2022.2.4,60.16677025
Nila,orange,Blue,yellow,y,,,,,,,,,,,,,3,7,55,7,,,,,,872.5566195,873.0490052,873.0658467,874.0486012,874.0486012,875.5483389,875.5483389,y,1,0.4560169,,,67894,1,2022-10-09_15h20.51.061,Stroop Task-Lab in Psychology (Group Project),2022.2.4,60.16677025
Orange,red,kesari,red,r,,,,,,,,,,,,,3,8,56,8,,,,,,876.0317342,876.5314945,876.5314945,877.531073,877.531073,879.0310128,879.0310128,r,1,0.6094953,,,67894,1,2022-10-09_15h20.51.061,Stroop Task-Lab in Psychology (Group Project),2022.2.4,60.16677025
Kesari,blue,Orange,orange,o,,,,,,,,,,,,,3,9,57,9,,,,,,879.6696596,880.1634151,880.1806515,881.1637123,881.1637123,882.66327,882.66327,o,1,0.714517,,,67894,1,2022-10-09_15h20.51.061,Stroop Task-Lab in Psychology (Group Project),2022.2.4,60.16677025
Orange,yellow,Kesari,blue,y,,,,,,,,,,,,,3,10,58,10,,,,,,883.397156,883.8963737,883.8963737,884.8960586,884.8960586,886.3957433,886.3957433,y,1,0.630992,,,67894,1,2022-10-09_15h20.51.061,Stroop Task-Lab in Psychology (Group Project),2022.2.4,60.16677025
Kesari,orange,Orange,blue,b,,,,,,,,,,,,,3,11,59,11,,,,,,887.0538339,887.5457582,887.5621427,888.5452638,888.5452638,890.0448298,890.0448298,b,1,0.6863568,,,67894,1,2022-10-09_15h20.51.061,Stroop Task-Lab in Psychology (Group Project),2022.2.4,60.16677025
Yellow,red,Pila,yellow,r,,,,,,,,,,,,,3,12,60,12,,,,,,890.7710559,891.2609762,891.2779287,892.2609047,892.2609047,893.7606251,893.7606251,r,1,0.4070578,,,67894,1,2022-10-09_15h20.51.061,Stroop Task-Lab in Psychology (Group Project),2022.2.4,60.16677025
Pila,blue,Yellow,orange,o,,,,,,,,,,,,,3,13,61,13,,,,,,894.2021915,894.6934898,894.710507,895.6929323,895.6929323,897.1931549,897.1931549,o,1,0.5097749,,,67894,1,2022-10-09_15h20.51.061,Stroop Task-Lab in Psychology (Group Project),2022.2.4,60.16677025
Yellow,yellow,Pila,blue,y,,,,,,,,,,,,,3,14,62,14,,,,,,897.7315664,898.2262006,898.2428891,899.2259906,899.2259906,900.7258795,900.7258795,y,1,0.5335513,,,67894,1,2022-10-09_15h20.51.061,Stroop Task-Lab in Psychology (Group Project),2022.2.4,60.16677025
Pila,orange,Yellow,blue,b,,,,,,,,,,,,,3,15,63,15,,,,,,901.2874962,901.7756343,901.7919975,902.7750982,902.7750982,904.274612,904.274612,b,1,0.6770906,,,67894,1,2022-10-09_15h20.51.061,Stroop Task-Lab in Psychology (Group Project),2022.2.4,60.16677025
,,,,,,,,,,,,,,,,,,,,,,,,,,,,,,,,,,,,904.9748358,905.9742703,,,,,,
