word1,color1,word2,color2,corr_resp,trials_1.thisRepN,trials_1.thisTrialN,trials_1.thisN,trials_1.thisIndex,trials_2.thisRepN,trials_2.thisTrialN,trials_2.thisN,trials_2.thisIndex,trials_3.thisRepN,trials_3.thisTrialN,trials_3.thisN,trials_3.thisIndex,text_2.started,text_2.stopped,ins_.started,text_4.started,ins_.stopped,text_4.stopped,fixation.started,sti.started,fixation.stopped,sti.stopped,dist.started,dist.stopped,key_resp.started,key_resp.stopped,key_resp.keys,key_resp.corr,key_resp.rt,participant,session,date,expName,psychopyVersion,frameRate,
Orange,red,kesari,red,r,0,0,0,8,,,,,,,,,15.533880099999806,16.535273600000437,16.535273600000437,21.53416929999912,21.53416929999912,25.5429409999997,25.5429409999997,26.034063099999912,26.05078279999907,27.034239500000695,27.034239500000695,28.53429750000032,28.53429750000032,31.54341939999904,None,0,,387752,001,2022-10-09_15h17.46.272,Stroop Task-Lab in Psychology (Group Project),2022.2.4,60.01359908139606,
Red,blue,Laal,yellow,b,0,1,1,3,,,,,,,,,,,,,,,31.54341939999904,32.03436669999974,32.05092069999955,33.034341000000495,33.034341000000495,34.53417249999984,34.53417249999984,,b,1,1.6515106000006199,387752,001,2022-10-09_15h17.46.272,Stroop Task-Lab in Psychology (Group Project),2022.2.4,60.01359908139606,
Red,orange,Laal,red,o,0,2,2,2,,,,,,,,,,,,,,,36.21775510000043,36.717732799999794,36.717732799999794,37.71783870000036,37.71783870000036,39.21783709999909,39.21783709999909,,o,1,1.7810582999991311,387752,001,2022-10-09_15h17.46.272,Stroop Task-Lab in Psychology (Group Project),2022.2.4,60.01359908139606,
Red,blue,Laal,yellow,b,0,3,3,3,,,,,,,,,,,,,,,41.017002200000206,41.51702909999949,41.51702909999949,42.51738710000063,42.51738710000063,44.017260099999476,44.017260099999476,,b,1,0.8330091999996512,387752,001,2022-10-09_15h17.46.272,Stroop Task-Lab in Psychology (Group Project),2022.2.4,60.01359908139606,
Pila,blue,Yellow,orange,o,0,4,4,13,,,,,,,,,,,,,,,44.86757410000064,45.36731660000078,45.36731660000078,46.36754420000034,46.36754420000034,47.86740439999994,47.86740439999994,,o,1,2.1388495999999577,387752,001,2022-10-09_15h17.46.272,Stroop Task-Lab in Psychology (Group Project),2022.2.4,60.01359908139606,
Blue,blue,Nila,red,b,0,5,5,4,,,,,,,,,,,,,,,50.034158299999035,50.533984199999395,50.533984199999395,51.5341296000006,51.5341296000006,53.03433179999956,53.03433179999956,,b,1,1.6627307999988261,387752,001,2022-10-09_15h17.46.272,Stroop Task-Lab in Psychology (Group Project),2022.2.4,60.01359908139606,
Red,blue,Laal,yellow,b,0,6,6,3,,,,,,,,,,,,,,,54.71720819999973,55.2176273999994,55.2176273999994,56.217857300000105,56.217857300000105,57.717489299999215,57.717489299999215,60.71770379999907,None,0,,387752,001,2022-10-09_15h17.46.272,Stroop Task-Lab in Psychology (Group Project),2022.2.4,60.01359908139606,
Laal,blue,Red,yellow,y,0,7,7,1,,,,,,,,,,,,,,,60.71770379999907,61.217656499999066,61.217656499999066,62.217865299999175,62.217865299999175,63.71795779999957,63.71795779999957,,y,1,0.563498299998173,387752,001,2022-10-09_15h17.46.272,Stroop Task-Lab in Psychology (Group Project),2022.2.4,60.01359908139606,
Yellow,yellow,Pila,blue,y,0,8,8,14,,,,,,,,,,,,,,,64.30820750000021,64.8011516000006,64.81810740000037,65.8011349999997,65.8011349999997,67.3014005999994,67.3014005999994,,y,1,0.4637027999997372,387752,001,2022-10-09_15h17.46.272,Stroop Task-Lab in Psychology (Group Project),2022.2.4,60.01359908139606,
Red,orange,Laal,red,o,0,9,9,2,,,,,,,,,,,,,,,67.78414530000009,68.28445490000013,68.28445490000013,69.2845056999995,69.2845056999995,70.78470290000041,70.78470290000041,,o,1,0.48415679999925487,387752,001,2022-10-09_15h17.46.272,Stroop Task-Lab in Psychology (Group Project),2022.2.4,60.01359908139606,
Nila,orange,Blue,yellow,y,0,10,10,7,,,,,,,,,,,,,,,71.30104699999902,71.80122929999925,71.80122929999925,72.80135829999927,72.80135829999927,74.30124980000073,74.30124980000073,,y,1,2.6457143999996333,387752,001,2022-10-09_15h17.46.272,Stroop Task-Lab in Psychology (Group Project),2022.2.4,60.01359908139606,
Nila,red,Blue,orange,o,0,11,11,5,,,,,,,,,,,,,,,76.96767829999953,77.46809290000056,77.46809290000056,78.46808520000013,78.46808520000013,79.96790859999965,79.96790859999965,,o,1,0.15094039999894449,387752,001,2022-10-09_15h17.46.272,Stroop Task-Lab in Psychology (Group Project),2022.2.4,60.01359908139606,
Orange,yellow,Kesari,blue,y,0,12,12,10,,,,,,,,,,,,,,,80.1548156000008,80.65140690000044,80.66810669999904,81.6513245999995,81.6513245999995,83.15126260000034,83.15126260000034,,y,1,0.6088951000001543,387752,001,2022-10-09_15h17.46.272,Stroop Task-Lab in Psychology (Group Project),2022.2.4,60.01359908139606,
Pila,orange,Yellow,blue,b,0,13,13,15,,,,,,,,,,,,,,,83.78437060000033,84.28471239999999,84.28471239999999,85.28477969999949,85.28477969999949,86.78468880000037,86.78468880000037,,b,1,0.5060548999990715,387752,001,2022-10-09_15h17.46.272,Stroop Task-Lab in Psychology (Group Project),2022.2.4,60.01359908139606,
Orange,yellow,Kesari,blue,y,0,14,14,10,,,,,,,,,,,,,,,87.31828599999972,87.81824039999992,87.81824039999992,88.81815859999915,88.81815859999915,90.31810600000063,90.31810600000063,,y,1,0.5992378999999346,387752,001,2022-10-09_15h17.46.272,Stroop Task-Lab in Psychology (Group Project),2022.2.4,60.01359908139606,
Blue,red,Nila,yellow,r,0,15,15,6,,,,,,,,,,,,,,,90.93454179999935,91.4350615000003,91.4350615000003,92.43500630000017,92.43500630000017,93.93497089999983,93.93497089999983,,r,1,0.1874921999988146,387752,001,2022-10-09_15h17.46.272,Stroop Task-Lab in Psychology (Group Project),2022.2.4,60.01359908139606,
Blue,red,Nila,yellow,r,1,0,16,6,,,,,,,,,,,,,,,94.1512602999992,94.65188089999901,94.65188089999901,95.65190409999923,95.65190409999923,97.1517703999998,97.1517703999998,,r,1,0.6517313999993348,387752,001,2022-10-09_15h17.46.272,Stroop Task-Lab in Psychology (Group Project),2022.2.4,60.01359908139606,
Kesari,blue,Orange,orange,o,1,1,17,9,,,,,,,,,,,,,,,97.83462399999917,98.33512689999952,98.33512689999952,99.33496639999976,99.33496639999976,100.83482270000059,100.83482270000059,,o,1,1.0722609999993438,387752,001,2022-10-09_15h17.46.272,Stroop Task-Lab in Psychology (Group Project),2022.2.4,60.01359908139606,
Blue,red,Nila,yellow,r,1,2,18,6,,,,,,,,,,,,,,,101.93471999999929,102.4349973999997,102.4349973999997,103.4349598000008,103.4349598000008,104.93501689999903,104.93501689999903,,r,1,0.535762599998634,387752,001,2022-10-09_15h17.46.272,Stroop Task-Lab in Psychology (Group Project),2022.2.4,60.01359908139606,
Red,red,Laal,orange,r,1,3,19,0,,,,,,,,,,,,,,,105.50152359999993,106.00167069999952,106.00167069999952,107.00174359999983,107.00174359999983,108.50159469999926,108.50159469999926,,r,1,0.7519078999994235,387752,001,2022-10-09_15h17.46.272,Stroop Task-Lab in Psychology (Group Project),2022.2.4,60.01359908139606,
Yellow,red,Pila,yellow,r,1,4,20,12,,,,,,,,,,,,,,,109.28478240000004,109.78523350000069,109.78523350000069,110.78523099999984,110.78523099999984,112.28526050000073,112.28526050000073,,r,1,0.4971109999987675,387752,001,2022-10-09_15h17.46.272,Stroop Task-Lab in Psychology (Group Project),2022.2.4,60.01359908139606,
Pila,orange,Yellow,blue,b,1,5,21,15,,,,,,,,,,,,,,,112.80254860000059,113.30177689999982,113.30177689999982,114.30178999999953,114.30178999999953,115.80202869999994,115.80202869999994,,b,1,2.268009699999311,387752,001,2022-10-09_15h17.46.272,Stroop Task-Lab in Psychology (Group Project),2022.2.4,60.01359908139606,
Red,red,Laal,orange,r,1,6,22,0,,,,,,,,,,,,,,,118.10156690000076,118.60192909999932,118.60192909999932,119.60195899999962,119.60195899999962,121.10210010000083,121.10210010000083,,r,1,0.8758909999996831,387752,001,2022-10-09_15h17.46.272,Stroop Task-Lab in Psychology (Group Project),2022.2.4,60.01359908139606,
Orange,red,kesari,red,r,1,7,23,8,,,,,,,,,,,,,,,122.0043186999992,122.50237629999901,122.51891219999925,123.50208360000033,123.50208360000033,125.0020057999991,125.0020057999991,,r,1,0.8469070999999531,387752,001,2022-10-09_15h17.46.272,Stroop Task-Lab in Psychology (Group Project),2022.2.4,60.01359908139606,
Blue,blue,Nila,red,b,1,8,24,4,,,,,,,,,,,,,,,125.86846110000079,126.36869139999908,126.36869139999908,127.36888440000075,127.36888440000075,128.86889089999931,128.86889089999931,,b,1,0.41786119999960647,387752,001,2022-10-09_15h17.46.272,Stroop Task-Lab in Psychology (Group Project),2022.2.4,60.01359908139606,
Red,red,Laal,orange,r,1,9,25,0,,,,,,,,,,,,,,,129.31857209999907,129.81885370000055,129.81885370000055,130.81879490000028,130.81879490000028,132.31889600000068,132.31889600000068,,r,1,0.8683877999992546,387752,001,2022-10-09_15h17.46.272,Stroop Task-Lab in Psychology (Group Project),2022.2.4,60.01359908139606,
Laal,blue,Red,yellow,y,1,10,26,1,,,,,,,,,,,,,,,133.21865509999952,133.7188081000004,133.7188081000004,134.71879850000005,134.71879850000005,136.21891649999998,136.21891649999998,,b,0,1.2265704999990703,387752,001,2022-10-09_15h17.46.272,Stroop Task-Lab in Psychology (Group Project),2022.2.4,60.01359908139606,
Pila,blue,Yellow,orange,o,1,11,27,13,,,,,,,,,,,,,,,137.46870280000076,137.96893889999956,137.96893889999956,138.96889960000044,138.96889960000044,140.46860539999943,140.46860539999943,,o,1,0.9150580999994418,387752,001,2022-10-09_15h17.46.272,Stroop Task-Lab in Psychology (Group Project),2022.2.4,60.01359908139606,
Laal,blue,Red,yellow,y,1,12,28,1,,,,,,,,,,,,,,,141.4065111,141.90223479999986,141.91910069999903,142.90230539999902,142.90230539999902,144.40243550000014,144.40243550000014,,y,1,1.0418522999989364,387752,001,2022-10-09_15h17.46.272,Stroop Task-Lab in Psychology (Group Project),2022.2.4,60.01359908139606,
Yellow,red,Pila,yellow,r,1,13,29,12,,,,,,,,,,,,,,,145.46880149999924,145.96903380000003,145.96903380000003,146.9690296000008,146.9690296000008,148.4690499999997,148.4690499999997,,r,1,0.890529799999058,387752,001,2022-10-09_15h17.46.272,Stroop Task-Lab in Psychology (Group Project),2022.2.4,60.01359908139606,
Pila,blue,Yellow,orange,o,1,14,30,13,,,,,,,,,,,,,,,149.3855051999999,149.88581499999964,149.88581499999964,150.88592830000016,150.88592830000016,152.38574169999993,152.38574169999993,,o,1,1.5245489999997517,387752,001,2022-10-09_15h17.46.272,Stroop Task-Lab in Psychology (Group Project),2022.2.4,60.01359908139606,
Yellow,red,Pila,yellow,r,1,15,31,12,,,,,,,,,,,,,,,153.93564650000008,154.43592759999956,154.43592759999956,155.43589190000057,155.43589190000057,156.93614739999975,156.93614739999975,,r,1,1.4736311999986356,387752,001,2022-10-09_15h17.46.272,Stroop Task-Lab in Psychology (Group Project),2022.2.4,60.01359908139606,
Nila,orange,Blue,yellow,y,2,0,32,7,,,,,,,,,,,,,,,158.43805219999922,158.93577000000005,158.95257289999972,159.93601470000067,159.93601470000067,161.43588549999913,161.43588549999913,,y,1,2.841571399998429,387752,001,2022-10-09_15h17.46.272,Stroop Task-Lab in Psychology (Group Project),2022.2.4,60.01359908139606,
Yellow,yellow,Pila,blue,y,2,1,33,14,,,,,,,,,,,,,,,164.30229970000073,164.80307150000044,164.80307150000044,165.80273979999947,165.80273979999947,167.3027048999993,167.3027048999993,,y,1,0.41408489999957965,387752,001,2022-10-09_15h17.46.272,Stroop Task-Lab in Psychology (Group Project),2022.2.4,60.01359908139606,
Yellow,red,Pila,yellow,r,2,2,34,12,,,,,,,,,,,,,,,167.73592859999917,168.23633999999947,168.23633999999947,169.23612329999924,169.23612329999924,170.73608500000046,170.73608500000046,173.73634390000007,None,0,,387752,001,2022-10-09_15h17.46.272,Stroop Task-Lab in Psychology (Group Project),2022.2.4,60.01359908139606,
Orange,red,kesari,red,r,2,3,35,8,,,,,,,,,,,,,,,173.73634390000007,174.23628619999909,174.23628619999909,175.2362565000003,175.2362565000003,176.7361108999994,176.7361108999994,,r,1,0.6208400999985315,387752,001,2022-10-09_15h17.46.272,Stroop Task-Lab in Psychology (Group Project),2022.2.4,60.01359908139606,
Nila,red,Blue,orange,o,2,4,36,5,,,,,,,,,,,,,,,177.3859491000003,177.88630919999923,177.88630919999923,178.88636299999962,178.88636299999962,180.38646019999942,180.38646019999942,183.38641850000022,None,0,,387752,001,2022-10-09_15h17.46.272,Stroop Task-Lab in Psychology (Group Project),2022.2.4,60.01359908139606,
Orange,yellow,Kesari,blue,y,2,5,37,10,,,,,,,,,,,,,,,183.38641850000022,183.88633819999995,183.88633819999995,184.88633540000046,184.88633540000046,186.3863025999999,186.3863025999999,,y,1,0.40118380000058096,387752,001,2022-10-09_15h17.46.272,Stroop Task-Lab in Psychology (Group Project),2022.2.4,60.01359908139606,
Kesari,blue,Orange,orange,o,2,6,38,9,,,,,,,,,,,,,,,186.81975539999985,187.31936180000048,187.31936180000048,188.30333969999992,188.30333969999992,189.80317309999919,189.80317309999919,,o,1,1.5142927999986568,387752,001,2022-10-09_15h17.46.272,Stroop Task-Lab in Psychology (Group Project),2022.2.4,60.01359908139606,
Kesari,orange,Orange,blue,b,2,7,39,11,,,,,,,,,,,,,,,191.33643510000002,191.83678709999913,191.83678709999913,192.8368771000005,192.8368771000005,194.3368405000001,194.3368405000001,,b,1,2.1256343000004563,387752,001,2022-10-09_15h17.46.272,Stroop Task-Lab in Psychology (Group Project),2022.2.4,60.01359908139606,
Red,red,Laal,orange,r,2,8,40,0,,,,,,,,,,,,,,,196.48857529999987,196.98646799999915,197.0031730999999,197.98651339999924,197.98651339999924,199.4864194999991,199.4864194999991,202.4867114000008,None,0,,387752,001,2022-10-09_15h17.46.272,Stroop Task-Lab in Psychology (Group Project),2022.2.4,60.01359908139606,
Red,orange,Laal,red,o,2,9,41,2,,,,,,,,,,,,,,,202.4867114000008,202.9867008000001,202.9867008000001,203.98681439999928,203.98681439999928,205.48653729999933,205.48653729999933,,o,1,0.3984415999984776,387752,001,2022-10-09_15h17.46.272,Stroop Task-Lab in Psychology (Group Project),2022.2.4,60.01359908139606,
Red,orange,Laal,red,o,2,10,42,2,,,,,,,,,,,,,,,205.9030545000005,206.40328269999918,206.40328269999918,207.38686179999968,207.38686179999968,208.88690900000074,208.9033727999995,211.9034255000006,None,0,,387752,001,2022-10-09_15h17.46.272,Stroop Task-Lab in Psychology (Group Project),2022.2.4,60.01359908139606,
Kesari,blue,Orange,orange,o,2,11,43,9,,,,,,,,,,,,,,,211.9034255000006,212.4033541000008,212.4033541000008,213.40349529999912,213.40349529999912,214.90367180000067,214.90367180000067,,o,1,0.4154715999993641,387752,001,2022-10-09_15h17.46.272,Stroop Task-Lab in Psychology (Group Project),2022.2.4,60.01359908139606,
Pila,orange,Yellow,blue,b,2,12,44,15,,,,,,,,,,,,,,,215.3364913000005,215.8365522999993,215.8365522999993,216.83696480000071,216.83696480000071,218.3369117000002,218.3369117000002,,b,1,0.9799333999999362,387752,001,2022-10-09_15h17.46.272,Stroop Task-Lab in Psychology (Group Project),2022.2.4,60.01359908139606,
Blue,red,Nila,yellow,r,2,13,45,6,,,,,,,,,,,,,,,219.33667550000064,219.8369545000005,219.8369545000005,220.83703310000055,220.83703310000055,222.33723210000062,222.33723210000062,225.33714370000052,None,0,,387752,001,2022-10-09_15h17.46.272,Stroop Task-Lab in Psychology (Group Project),2022.2.4,60.01359908139606,
Blue,blue,Nila,red,b,2,14,46,4,,,,,,,,,,,,,,,225.33714370000052,225.83684539999922,225.83684539999922,226.83706859999984,226.83706859999984,228.3370785999996,228.3370785999996,,b,1,0.42637769999782904,387752,001,2022-10-09_15h17.46.272,Stroop Task-Lab in Psychology (Group Project),2022.2.4,60.01359908139606,
Nila,orange,Blue,yellow,y,2,15,47,7,,,,,,,,,,,,,,,228.7880057000002,229.28707269999904,229.28707269999904,230.28728129999945,230.28728129999945,231.78712610000002,231.78712610000002,,y,1,0.5198079000001599,387752,001,2022-10-09_15h17.46.272,Stroop Task-Lab in Psychology (Group Project),2022.2.4,60.01359908139606,
Laal,blue,Red,yellow,y,3,0,48,1,,,,,,,,,,,,,,,232.33703269999933,232.83705120000013,232.83705120000013,233.83720829999947,233.83720829999947,235.33721779999905,235.33721779999905,,y,1,2.322220299998662,387752,001,2022-10-09_15h17.46.272,Stroop Task-Lab in Psychology (Group Project),2022.2.4,60.01359908139606,
Nila,red,Blue,orange,o,3,1,49,5,,,,,,,,,,,,,,,237.6972910000004,238.18741489999957,238.20410620000075,239.1875170000003,239.1875170000003,240.68740570000045,240.68740570000045,,o,1,0.07640009999886388,387752,001,2022-10-09_15h17.46.272,Stroop Task-Lab in Psychology (Group Project),2022.2.4,60.01359908139606,
Kesari,orange,Orange,blue,b,3,2,50,11,,,,,,,,,,,,,,,240.78926200000024,241.2875385999996,241.30406089999997,242.28731209999933,242.28731209999933,243.78738089999933,243.78738089999933,,b,1,0.13305020000007062,387752,001,2022-10-09_15h17.46.272,Stroop Task-Lab in Psychology (Group Project),2022.2.4,60.01359908139606,
Orange,red,kesari,red,r,3,3,51,8,,,,,,,,,,,,,,,243.94345989999965,244.43748229999983,244.45397779999985,245.43737259999943,245.43737259999943,246.93745169999966,246.93745169999966,,r,1,1.8760010999994847,387752,001,2022-10-09_15h17.46.272,Stroop Task-Lab in Psychology (Group Project),2022.2.4,60.01359908139606,
Yellow,yellow,Pila,blue,y,3,4,52,14,,,,,,,,,,,,,,,248.83913070000017,249.3377003000005,249.3543862000006,250.33790910000062,250.33790910000062,251.83750250000048,251.83750250000048,,y,1,0.5649862999980542,387752,001,2022-10-09_15h17.46.272,Stroop Task-Lab in Psychology (Group Project),2022.2.4,60.01359908139606,
Pila,blue,Yellow,orange,o,3,5,53,13,,,,,,,,,,,,,,,252.42469720000008,252.92087299999912,252.9376357000001,253.92086290000043,253.92086290000043,255.42081549999966,255.42081549999966,,o,1,1.8422851999985141,387752,001,2022-10-09_15h17.46.272,Stroop Task-Lab in Psychology (Group Project),2022.2.4,60.01359908139606,
Red,blue,Laal,yellow,b,3,6,54,3,,,,,,,,,,,,,,,257.2896961000006,257.787644,257.8042741999998,258.7876230999991,258.7876230999991,260.2876441999997,260.2876441999997,,b,1,2.1246877999983553,387752,001,2022-10-09_15h17.46.272,Stroop Task-Lab in Psychology (Group Project),2022.2.4,60.01359908139606,
Yellow,yellow,Pila,blue,y,3,7,55,14,,,,,,,,,,,,,,,262.43729299999904,262.93782099999953,262.93782099999953,263.9376150999997,263.9376150999997,265.43776029999935,265.43776029999935,,y,1,0.9926954000002297,387752,001,2022-10-09_15h17.46.272,Stroop Task-Lab in Psychology (Group Project),2022.2.4,60.01359908139606,
Kesari,blue,Orange,orange,o,3,8,56,9,,,,,,,,,,,,,,,266.45640119999916,266.9545856000004,266.97100730000057,267.9544513000001,267.9544513000001,269.45452509999996,269.45452509999996,272.4549397999999,None,0,,387752,001,2022-10-09_15h17.46.272,Stroop Task-Lab in Psychology (Group Project),2022.2.4,60.01359908139606,
Nila,orange,Blue,yellow,y,3,9,57,7,,,,,,,,,,,,,,,272.4549397999999,272.9548250000007,272.9548250000007,273.95459499999924,273.95459499999924,275.45446810000067,275.45446810000067,,y,1,1.345200299998396,387752,001,2022-10-09_15h17.46.272,Stroop Task-Lab in Psychology (Group Project),2022.2.4,60.01359908139606,
Nila,red,Blue,orange,o,3,10,58,5,,,,,,,,,,,,,,,276.8210196,277.3211360999994,277.3211360999994,278.3211071000005,278.3211071000005,279.8211233999991,279.8211233999991,,r,0,0.7450659999994969,387752,001,2022-10-09_15h17.46.272,Stroop Task-Lab in Psychology (Group Project),2022.2.4,60.01359908139606,
Kesari,orange,Orange,blue,b,3,11,59,11,,,,,,,,,,,,,,,280.5876078000001,281.08845010000005,281.08845010000005,282.0883040000008,282.0883040000008,283.58829929999956,283.58829929999956,,b,1,0.5098249999991822,387752,001,2022-10-09_15h17.46.272,Stroop Task-Lab in Psychology (Group Project),2022.2.4,60.01359908139606,
Orange,yellow,Kesari,blue,y,3,12,60,10,,,,,,,,,,,,,,,284.1384913999991,284.6216050999992,284.63840659999914,285.6216024000005,285.6216024000005,287.12173079999957,287.12173079999957,290.1225709999999,None,0,,387752,001,2022-10-09_15h17.46.272,Stroop Task-Lab in Psychology (Group Project),2022.2.4,60.01359908139606,
Pila,orange,Yellow,blue,b,3,13,61,15,,,,,,,,,,,,,,,290.1225709999999,290.6214572000008,290.6379443000005,291.6214130999997,291.6214130999997,293.12141150000025,293.12141150000025,,b,1,0.8597716999993281,387752,001,2022-10-09_15h17.46.272,Stroop Task-Lab in Psychology (Group Project),2022.2.4,60.01359908139606,
Blue,blue,Nila,red,b,3,14,62,4,,,,,,,,,,,,,,,294.0045176000003,294.5045351000008,294.5045351000008,295.5049027999994,295.5049027999994,297.0047309999991,297.0047309999991,,b,1,0.7617927999981475,387752,001,2022-10-09_15h17.46.272,Stroop Task-Lab in Psychology (Group Project),2022.2.4,60.01359908139606,
Kesari,orange,Orange,blue,b,3,15,63,11,,,,,,,,,,,,,,,297.7879092000003,298.2882293999992,298.2882293999992,299.2882676999998,299.2882676999998,300.78832800000055,300.78832800000055,,b,1,0.394487499997922,387752,001,2022-10-09_15h17.46.272,Stroop Task-Lab in Psychology (Group Project),2022.2.4,60.01359908139606,
Red,red,Laal,orange,r,,,,,0,0,0,0,,,,,,,,,,,301.2245421000007,301.70491330000004,301.7383248999995,302.70490719999907,302.70490719999907,304.20499159999963,304.20499159999963,,r,1,0.8685888999989402,387752,001,2022-10-09_15h17.46.272,Stroop Task-Lab in Psychology (Group Project),2022.2.4,60.01359908139606,
Laal,blue,Red,yellow,y,,,,,0,1,1,1,,,,,,,,,,,305.1052842000008,305.60516649999954,305.60516649999954,306.60505679999915,306.60505679999915,308.10549750000064,308.10549750000064,,y,1,0.9222647999995388,387752,001,2022-10-09_15h17.46.272,Stroop Task-Lab in Psychology (Group Project),2022.2.4,60.01359908139606,
Red,orange,Laal,red,o,,,,,0,2,2,2,,,,,,,,,,,309.06726349999917,309.55519509999976,309.5715474999997,310.55504610000025,310.55504610000025,312.0551919999998,312.0551919999998,,o,1,1.3407153999978618,387752,001,2022-10-09_15h17.46.272,Stroop Task-Lab in Psychology (Group Project),2022.2.4,60.01359908139606,
Red,blue,Laal,yellow,b,,,,,0,3,3,3,,,,,,,,,,,313.4214599000006,313.92191769999954,313.92191769999954,314.92174870000053,314.92174870000053,316.4216847000007,316.4216847000007,,r,0,0.7192098999985319,387752,001,2022-10-09_15h17.46.272,Stroop Task-Lab in Psychology (Group Project),2022.2.4,60.01359908139606,
Blue,blue,Nila,red,b,,,,,0,4,4,4,,,,,,,,,,,317.1715036000005,317.67184160000033,317.67184160000033,318.67179009999927,318.67179009999927,320.17169230000036,320.17169230000036,,b,1,0.38079539999853296,387752,001,2022-10-09_15h17.46.272,Stroop Task-Lab in Psychology (Group Project),2022.2.4,60.01359908139606,
Nila,red,Blue,orange,o,,,,,0,5,5,5,,,,,,,,,,,320.57153149999976,321.0719878,321.0719878,322.0720005999992,322.0720005999992,323.5721214999994,323.5721214999994,,o,1,1.0651669999988371,387752,001,2022-10-09_15h17.46.272,Stroop Task-Lab in Psychology (Group Project),2022.2.4,60.01359908139606,
Blue,red,Nila,yellow,r,,,,,0,6,6,6,,,,,,,,,,,324.6549481999991,325.1552740999996,325.1552740999996,326.15534409999964,326.15534409999964,327.6552293000004,327.6552293000004,,r,1,1.0746278999995411,387752,001,2022-10-09_15h17.46.272,Stroop Task-Lab in Psychology (Group Project),2022.2.4,60.01359908139606,
Nila,orange,Blue,yellow,y,,,,,0,7,7,7,,,,,,,,,,,328.7551105000002,329.25559880000037,329.25559880000037,330.2552524999992,330.2552524999992,331.7554633,331.7554633,334.7555596000002,None,0,,387752,001,2022-10-09_15h17.46.272,Stroop Task-Lab in Psychology (Group Project),2022.2.4,60.01359908139606,
Orange,red,kesari,red,r,,,,,0,8,8,8,,,,,,,,,,,334.7555596000002,335.2553563999991,335.2553563999991,336.25558509999973,336.25558509999973,337.75534309999966,337.75534309999966,,r,1,1.34918529999959,387752,001,2022-10-09_15h17.46.272,Stroop Task-Lab in Psychology (Group Project),2022.2.4,60.01359908139606,
Kesari,blue,Orange,orange,o,,,,,0,9,9,9,,,,,,,,,,,339.1218740000004,339.62221839999984,339.62221839999984,340.6220795999998,340.6220795999998,342.12213429999974,342.12213429999974,,o,1,0.5385554000004049,387752,001,2022-10-09_15h17.46.272,Stroop Task-Lab in Psychology (Group Project),2022.2.4,60.01359908139606,
Orange,yellow,Kesari,blue,y,,,,,0,10,10,10,,,,,,,,,,,342.68852159999915,343.1889706000002,343.1889706000002,344.1889508000004,344.1889508000004,345.68890029999966,345.68890029999966,,y,1,0.4745359999978973,387752,001,2022-10-09_15h17.46.272,Stroop Task-Lab in Psychology (Group Project),2022.2.4,60.01359908139606,
Kesari,orange,Orange,blue,b,,,,,0,11,11,11,,,,,,,,,,,346.18867599999976,346.6891496999997,346.6891496999997,347.6891670999994,347.6891670999994,349.1889035999993,349.1889035999993,,b,1,0.2964393000002019,387752,001,2022-10-09_15h17.46.272,Stroop Task-Lab in Psychology (Group Project),2022.2.4,60.01359908139606,
Yellow,red,Pila,yellow,r,,,,,0,12,12,12,,,,,,,,,,,349.50530380000055,350.00568399999975,350.00568399999975,351.00562720000016,351.00562720000016,352.5058750999997,352.4889710999996,,r,1,0.5613017999985459,387752,001,2022-10-09_15h17.46.272,Stroop Task-Lab in Psychology (Group Project),2022.2.4,60.01359908139606,
Pila,blue,Yellow,orange,o,,,,,0,13,13,13,,,,,,,,,,,353.07681500000035,353.5725247999999,353.58919459999925,354.5724432999996,354.5724432999996,356.07251279999946,356.07251279999946,,o,1,1.6751060999995389,387752,001,2022-10-09_15h17.46.272,Stroop Task-Lab in Psychology (Group Project),2022.2.4,60.01359908139606,
Yellow,yellow,Pila,blue,y,,,,,0,14,14,14,,,,,,,,,,,357.77625160000025,358.2727071999998,358.28933850000067,359.2725112999997,359.2725112999997,360.7724696999994,360.7724696999994,,y,1,0.6109093999984907,387752,001,2022-10-09_15h17.46.272,Stroop Task-Lab in Psychology (Group Project),2022.2.4,60.01359908139606,
Pila,orange,Yellow,blue,b,,,,,0,15,15,15,,,,,,,,,,,361.4056352000007,361.9058394999993,361.9058394999993,362.9059175000002,362.9059175000002,364.4060540999999,364.4060540999999,,b,1,1.8420434999989084,387752,001,2022-10-09_15h17.46.272,Stroop Task-Lab in Psychology (Group Project),2022.2.4,60.01359908139606,
Red,red,Laal,orange,r,,,,,1,0,16,0,,,,,,,,,,,366.27233630000046,366.77274430000034,366.77274430000034,367.7728363999995,367.7728363999995,369.27269700000033,369.27269700000033,372.27274639999996,None,0,,387752,001,2022-10-09_15h17.46.272,Stroop Task-Lab in Psychology (Group Project),2022.2.4,60.01359908139606,
Laal,blue,Red,yellow,y,,,,,1,1,17,1,,,,,,,,,,,372.27274639999996,372.77267519999987,372.77267519999987,373.77271239999936,373.77271239999936,375.27261050000016,375.27261050000016,,b,0,1.147025099999155,387752,001,2022-10-09_15h17.46.272,Stroop Task-Lab in Psychology (Group Project),2022.2.4,60.01359908139606,
Red,orange,Laal,red,o,,,,,1,2,18,2,,,,,,,,,,,376.43909039999926,376.93952849999914,376.93952849999914,377.93950229999973,377.93950229999973,379.4395380999995,379.4395380999995,382.4396890000007,None,0,,387752,001,2022-10-09_15h17.46.272,Stroop Task-Lab in Psychology (Group Project),2022.2.4,60.01359908139606,
Red,blue,Laal,yellow,b,,,,,1,3,19,3,,,,,,,,,,,382.4396890000007,382.9395478000006,382.9395478000006,383.93949930000053,383.93949930000053,385.43955189999906,385.43955189999906,388.4397052000004,None,0,,387752,001,2022-10-09_15h17.46.272,Stroop Task-Lab in Psychology (Group Project),2022.2.4,60.01359908139606,
Blue,blue,Nila,red,b,,,,,1,4,20,4,,,,,,,,,,,388.4397052000004,388.93963769999937,388.93963769999937,389.93954549999944,389.93954549999944,391.4398383000007,391.4398383000007,394.4397862000005,None,0,,387752,001,2022-10-09_15h17.46.272,Stroop Task-Lab in Psychology (Group Project),2022.2.4,60.01359908139606,
Nila,red,Blue,orange,o,,,,,1,5,21,5,,,,,,,,,,,394.4397862000005,394.93994399999974,394.93994399999974,395.9231736999991,395.9231736999991,397.42317619999994,397.42317619999994,,y,0,0.951935199998843,387752,001,2022-10-09_15h17.46.272,Stroop Task-Lab in Psychology (Group Project),2022.2.4,60.01359908139606,
Blue,red,Nila,yellow,r,,,,,1,6,22,6,,,,,,,,,,,398.406209499999,398.9066158000005,398.9066158000005,399.90649940000003,399.90649940000003,401.4065026999997,401.4065026999997,,r,1,0.574789199999941,387752,001,2022-10-09_15h17.46.272,Stroop Task-Lab in Psychology (Group Project),2022.2.4,60.01359908139606,
Nila,orange,Blue,yellow,y,,,,,1,7,23,7,,,,,,,,,,,402.00762699999905,402.50666289999936,402.50666289999936,403.50652049999917,403.50652049999917,405.0064356999992,405.0064356999992,,y,1,0.25144319999890286,387752,001,2022-10-09_15h17.46.272,Stroop Task-Lab in Psychology (Group Project),2022.2.4,60.01359908139606,
Orange,red,kesari,red,r,,,,,1,8,24,8,,,,,,,,,,,405.2900246999998,405.79003399999965,405.79003399999965,406.79010460000063,406.79010460000063,408.29007269999966,408.29007269999966,,r,1,0.9425720999988698,387752,001,2022-10-09_15h17.46.272,Stroop Task-Lab in Psychology (Group Project),2022.2.4,60.01359908139606,
Kesari,blue,Orange,orange,o,,,,,1,9,25,9,,,,,,,,,,,409.25676009999916,409.75659429999905,409.75659429999905,410.7567096999992,410.7567096999992,412.25666719999936,412.25666719999936,,y,0,1.122263599998405,387752,001,2022-10-09_15h17.46.272,Stroop Task-Lab in Psychology (Group Project),2022.2.4,60.01359908139606,
Orange,yellow,Kesari,blue,y,,,,,1,10,26,10,,,,,,,,,,,413.4068260999993,413.9067348999997,413.9067348999997,414.90680690000045,414.90680690000045,416.4067350999994,416.4067350999994,419.40685940000003,None,0,,387752,001,2022-10-09_15h17.46.272,Stroop Task-Lab in Psychology (Group Project),2022.2.4,60.01359908139606,
Kesari,orange,Orange,blue,b,,,,,1,11,27,11,,,,,,,,,,,419.40685940000003,419.9067804999995,419.9067804999995,420.90680839999914,420.90680839999914,422.4067309999991,422.4067309999991,425.4068561999993,None,0,,387752,001,2022-10-09_15h17.46.272,Stroop Task-Lab in Psychology (Group Project),2022.2.4,60.01359908139606,
Yellow,red,Pila,yellow,r,,,,,1,12,28,12,,,,,,,,,,,425.4068561999993,425.90693699999974,425.90693699999974,426.90699610000047,426.90699610000047,428.4068772999999,428.4068772999999,431.4068294000008,None,0,,387752,001,2022-10-09_15h17.46.272,Stroop Task-Lab in Psychology (Group Project),2022.2.4,60.01359908139606,
Pila,blue,Yellow,orange,o,,,,,1,13,29,13,,,,,,,,,,,431.4068294000008,431.9070835000002,431.9070835000002,432.9071086999993,432.9071086999993,434.4069577999999,434.4069577999999,,y,0,0.9040282999976625,387752,001,2022-10-09_15h17.46.272,Stroop Task-Lab in Psychology (Group Project),2022.2.4,60.01359908139606,
Yellow,yellow,Pila,blue,y,,,,,1,14,30,14,,,,,,,,,,,435.3405949000007,435.8405203000002,435.8405203000002,436.8403111000007,436.8403111000007,438.3404812000008,438.3404812000008,441.3407251999997,None,0,,387752,001,2022-10-09_15h17.46.272,Stroop Task-Lab in Psychology (Group Project),2022.2.4,60.01359908139606,
Pila,orange,Yellow,blue,b,,,,,1,15,31,15,,,,,,,,,,,441.3407251999997,441.8403509,441.8403509,442.8406546999995,442.8406546999995,444.34235889999945,444.34235889999945,,None,0,,387752,001,2022-10-09_15h17.46.272,Stroop Task-Lab in Psychology (Group Project),2022.2.4,60.01359908139606,
Red,red,Laal,orange,r,,,,,2,0,32,0,,,,,,,,,,,447.3572968999997,447.8405361999994,447.8571269999993,448.840516799999,448.840516799999,450.3405645999992,450.3405645999992,,o,0,0.43257599999924423,387752,001,2022-10-09_15h17.46.272,Stroop Task-Lab in Psychology (Group Project),2022.2.4,60.01359908139606,
Laal,blue,Red,yellow,y,,,,,2,1,33,1,,,,,,,,,,,450.7903850999992,451.2907847000006,451.2907847000006,452.29063719999976,452.29063719999976,453.7907885000004,453.7907885000004,,y,1,0.08122229999935371,387752,001,2022-10-09_15h17.46.272,Stroop Task-Lab in Psychology (Group Project),2022.2.4,60.01359908139606,
Red,orange,Laal,red,o,,,,,2,2,34,2,,,,,,,,,,,453.8908893000007,454.39075290000073,454.39075290000073,455.39086730000054,455.39086730000054,456.89088339999944,456.89088339999944,,o,1,0.1317639999997482,387752,001,2022-10-09_15h17.46.272,Stroop Task-Lab in Psychology (Group Project),2022.2.4,60.01359908139606,
Red,blue,Laal,yellow,b,,,,,2,3,35,3,,,,,,,,,,,457.0406879000002,457.540783299999,457.540783299999,458.5407027000001,458.5407027000001,460.0409199000005,460.0409199000005,,b,1,0.6881995999992796,387752,001,2022-10-09_15h17.46.272,Stroop Task-Lab in Psychology (Group Project),2022.2.4,60.01359908139606,
Blue,blue,Nila,red,b,,,,,2,4,36,4,,,,,,,,,,,460.7573702999998,461.2575452000001,461.2575452000001,462.25760190000074,462.25760190000074,463.7573596000002,463.7573596000002,466.7615628000003,None,0,,387752,001,2022-10-09_15h17.46.272,Stroop Task-Lab in Psychology (Group Project),2022.2.4,60.01359908139606,
Nila,red,Blue,orange,o,,,,,2,5,37,5,,,,,,,,,,,466.7615628000003,467.2578668999995,467.2742808999992,468.2576640999996,468.2576640999996,469.7575202000007,469.7575202000007,472.75769670000045,None,0,,387752,001,2022-10-09_15h17.46.272,Stroop Task-Lab in Psychology (Group Project),2022.2.4,60.01359908139606,
Blue,red,Nila,yellow,r,,,,,2,6,38,6,,,,,,,,,,,472.75769670000045,473.2578613000005,473.2578613000005,474.2576341999993,474.2576341999993,475.75766979999935,475.75766979999935,478.7578555,None,0,,387752,001,2022-10-09_15h17.46.272,Stroop Task-Lab in Psychology (Group Project),2022.2.4,60.01359908139606,
Nila,orange,Blue,yellow,y,,,,,2,7,39,7,,,,,,,,,,,478.7578555,479.2578733999999,479.2578733999999,480.2578102000007,480.2578102000007,481.7577817000001,481.7411032,484.74121190000005,None,0,,387752,001,2022-10-09_15h17.46.272,Stroop Task-Lab in Psychology (Group Project),2022.2.4,60.01359908139606,
Orange,red,kesari,red,r,,,,,2,8,40,8,,,,,,,,,,,484.74121190000005,485.2413925000001,485.2413925000001,486.24125789999925,486.24125789999925,487.74116630000026,487.74116630000026,490.7412473000004,None,0,,387752,001,2022-10-09_15h17.46.272,Stroop Task-Lab in Psychology (Group Project),2022.2.4,60.01359908139606,
Kesari,blue,Orange,orange,o,,,,,2,9,41,9,,,,,,,,,,,490.7412473000004,491.2411534999992,491.2411534999992,492.24125690000074,492.24125690000074,493.7414907000002,493.7414907000002,496.74145060000046,None,0,,387752,001,2022-10-09_15h17.46.272,Stroop Task-Lab in Psychology (Group Project),2022.2.4,60.01359908139606,
Orange,yellow,Kesari,blue,y,,,,,2,10,42,10,,,,,,,,,,,496.74145060000046,497.24138519999906,497.24138519999906,498.24150799999916,498.24150799999916,499.74142089999987,499.74142089999987,502.74139599999944,None,0,,387752,001,2022-10-09_15h17.46.272,Stroop Task-Lab in Psychology (Group Project),2022.2.4,60.01359908139606,
Kesari,orange,Orange,blue,b,,,,,2,11,43,11,,,,,,,,,,,502.74139599999944,503.2415259999998,503.2415259999998,504.24158739999984,504.24158739999984,505.74140199999965,505.74140199999965,508.7415263999992,None,0,,387752,001,2022-10-09_15h17.46.272,Stroop Task-Lab in Psychology (Group Project),2022.2.4,60.01359908139606,
Yellow,red,Pila,yellow,r,,,,,2,12,44,12,,,,,,,,,,,508.7415263999992,509.2416097999994,509.2416097999994,510.2416487999999,510.2416487999999,511.74158139999963,511.74158139999963,514.7418343999998,None,0,,387752,001,2022-10-09_15h17.46.272,Stroop Task-Lab in Psychology (Group Project),2022.2.4,60.01359908139606,
Pila,blue,Yellow,orange,o,,,,,2,13,45,13,,,,,,,,,,,514.7418343999998,515.2415548000008,515.2415548000008,516.2418756000006,516.2418756000006,517.7417604999991,517.7417604999991,520.741806,None,0,,387752,001,2022-10-09_15h17.46.272,Stroop Task-Lab in Psychology (Group Project),2022.2.4,60.01359908139606,
Yellow,yellow,Pila,blue,y,,,,,2,14,46,14,,,,,,,,,,,520.741806,521.2418438000004,521.2418438000004,522.2417734999999,522.2417734999999,523.7418737999997,523.7418737999997,526.7417860999994,None,0,,387752,001,2022-10-09_15h17.46.272,Stroop Task-Lab in Psychology (Group Project),2022.2.4,60.01359908139606,
Pila,orange,Yellow,blue,b,,,,,2,15,47,15,,,,,,,,,,,526.7417860999994,527.2419405,527.2419405,528.2418338999996,528.2418338999996,529.7418089000003,529.7418089000003,532.7420760000005,None,0,,387752,001,2022-10-09_15h17.46.272,Stroop Task-Lab in Psychology (Group Project),2022.2.4,60.01359908139606,
Red,red,Laal,orange,r,,,,,3,0,48,0,,,,,,,,,,,532.7420760000005,533.2419508000003,533.2419508000003,534.241954699999,534.241954699999,535.7421704999997,535.7421704999997,538.7420493999998,None,0,,387752,001,2022-10-09_15h17.46.272,Stroop Task-Lab in Psychology (Group Project),2022.2.4,60.01359908139606,
Laal,blue,Red,yellow,y,,,,,3,1,49,1,,,,,,,,,,,538.7420493999998,539.242060999999,539.242060999999,540.2421443000003,540.2421443000003,541.7420769,541.7420769,544.7421672,None,0,,387752,001,2022-10-09_15h17.46.272,Stroop Task-Lab in Psychology (Group Project),2022.2.4,60.01359908139606,
Red,orange,Laal,red,o,,,,,3,2,50,2,,,,,,,,,,,544.7421672,545.2423455999997,545.2423455999997,546.2421553999993,546.2421553999993,547.7421336000007,547.7421336000007,,o,1,0.3737638999991759,387752,001,2022-10-09_15h17.46.272,Stroop Task-Lab in Psychology (Group Project),2022.2.4,60.01359908139606,
Red,blue,Laal,yellow,b,,,,,3,3,51,3,,,,,,,,,,,548.1425001000007,548.6425065000003,548.6425065000003,549.6423916000003,549.6423916000003,551.1421984000008,551.1421984000008,554.1421969999992,None,0,,387752,001,2022-10-09_15h17.46.272,Stroop Task-Lab in Psychology (Group Project),2022.2.4,60.01359908139606,
Blue,blue,Nila,red,b,,,,,3,4,52,4,,,,,,,,,,,554.1421969999992,554.6424564000008,554.6424564000008,555.6423976000005,555.6423976000005,557.1423723999997,557.1423723999997,,b,1,0.3824665999982244,387752,001,2022-10-09_15h17.46.272,Stroop Task-Lab in Psychology (Group Project),2022.2.4,60.01359908139606,
Nila,red,Blue,orange,o,,,,,3,5,53,5,,,,,,,,,,,557.5426459999999,558.0260006999997,558.0429174000001,559.0260892999995,559.0260892999995,560.5257383000007,560.5424538000007,,o,1,0.04232909999882395,387752,001,2022-10-09_15h17.46.272,Stroop Task-Lab in Psychology (Group Project),2022.2.4,60.01359908139606,
Blue,red,Nila,yellow,r,,,,,3,6,54,6,,,,,,,,,,,560.6113253000003,561.1092523000007,561.1257734999999,562.1091032999993,562.1091032999993,563.6092590000007,563.6092590000007,,r,1,0.5381532999999763,387752,001,2022-10-09_15h17.46.272,Stroop Task-Lab in Psychology (Group Project),2022.2.4,60.01359908139606,
Nila,orange,Blue,yellow,y,,,,,3,7,55,7,,,,,,,,,,,564.1757142000006,564.6758936000006,564.6758936000006,565.6757393999997,565.6757393999997,567.1759674999994,567.1759674999994,,y,1,0.5900821999985055,387752,001,2022-10-09_15h17.46.272,Stroop Task-Lab in Psychology (Group Project),2022.2.4,60.01359908139606,
Orange,red,kesari,red,r,,,,,3,8,56,8,,,,,,,,,,,567.7925147999995,568.2924951999994,568.2924951999994,569.2925438000002,569.2925438000002,570.7926153999997,570.7926153999997,,r,1,0.8459851999996317,387752,001,2022-10-09_15h17.46.272,Stroop Task-Lab in Psychology (Group Project),2022.2.4,60.01359908139606,
Kesari,blue,Orange,orange,o,,,,,3,9,57,9,,,,,,,,,,,571.6592994999992,572.1594442000005,572.1594442000005,573.1594791000007,573.1594791000007,574.6592829000001,574.6592829000001,,o,1,1.0193830000007438,387752,001,2022-10-09_15h17.46.272,Stroop Task-Lab in Psychology (Group Project),2022.2.4,60.01359908139606,
Orange,yellow,Kesari,blue,y,,,,,3,10,58,10,,,,,,,,,,,575.7097833999997,576.2097113,576.2097113,577.2093844999999,577.2093844999999,578.709347,578.709347,,y,1,0.5776564000007056,387752,001,2022-10-09_15h17.46.272,Stroop Task-Lab in Psychology (Group Project),2022.2.4,60.01359908139606,
Kesari,orange,Orange,blue,b,,,,,3,11,59,11,,,,,,,,,,,579.3094977000001,579.8095515000005,579.8095515000005,580.8095665000001,580.8095665000001,582.3094930999996,582.3094930999996,,b,1,0.5669044999995094,387752,001,2022-10-09_15h17.46.272,Stroop Task-Lab in Psychology (Group Project),2022.2.4,60.01359908139606,
Yellow,red,Pila,yellow,r,,,,,3,12,60,12,,,,,,,,,,,582.8928723999998,583.3927772000006,583.3927772000006,584.3929017999999,584.3929017999999,585.8928044000004,585.8928044000004,,o,0,2.345156399998814,387752,001,2022-10-09_15h17.46.272,Stroop Task-Lab in Psychology (Group Project),2022.2.4,60.01359908139606,
Pila,blue,Yellow,orange,o,,,,,3,13,61,13,,,,,,,,,,,588.2711720999996,588.7595760000004,588.7762115999994,589.759575,589.759575,591.2596393999993,591.2596393999993,,o,1,1.409899599999335,387752,001,2022-10-09_15h17.46.272,Stroop Task-Lab in Psychology (Group Project),2022.2.4,60.01359908139606,
Yellow,yellow,Pila,blue,y,,,,,3,14,62,14,,,,,,,,,,,592.6938551999992,593.1930197000001,593.1930197000001,594.1930854000002,594.1930854000002,595.6931471000007,595.6931471000007,,y,1,0.36753870000029565,387752,001,2022-10-09_15h17.46.272,Stroop Task-Lab in Psychology (Group Project),2022.2.4,60.01359908139606,
Pila,orange,Yellow,blue,b,,,,,3,15,63,15,,,,,,,,,,,596.0943535000006,596.5931347999995,596.6096861999995,597.5931268000004,597.5931268000004,599.0929656999997,599.0929656999997,,b,1,1.0846166999999696,387752,001,2022-10-09_15h17.46.272,Stroop Task-Lab in Psychology (Group Project),2022.2.4,60.01359908139606,
Kesari,blue,Orange,orange,o,,,,,,,,,0,0,0,9,,,,,,,600.2139891999996,600.7098062999994,600.7264625999996,601.7097618999996,601.7097618999996,603.2098043999995,603.2098043999995,,o,1,0.6377163999986806,387752,001,2022-10-09_15h17.46.272,Stroop Task-Lab in Psychology (Group Project),2022.2.4,60.01359908139606,
Blue,red,Nila,yellow,r,,,,,,,,,0,1,1,6,,,,,,,603.8765528999993,604.3764790000005,604.3764790000005,605.3764484000003,605.3764484000003,606.8764606999994,606.8764606999994,,r,1,1.8090416999984882,387752,001,2022-10-09_15h17.46.272,Stroop Task-Lab in Psychology (Group Project),2022.2.4,60.01359908139606,
Red,red,Laal,orange,r,,,,,,,,,0,2,2,0,,,,,,,608.7098693999997,609.2098752999991,609.2098752999991,610.2101266999998,610.2101266999998,611.7099615000006,611.7099615000006,,r,1,0.1357348000001366,387752,001,2022-10-09_15h17.46.272,Stroop Task-Lab in Psychology (Group Project),2022.2.4,60.01359908139606,
Blue,red,Nila,yellow,r,,,,,,,,,0,3,3,6,,,,,,,611.8766402000001,612.3767430000007,612.3767430000007,613.3766034,613.3766034,614.8763273000004,614.8763273000004,617.8766940000005,None,0,,387752,001,2022-10-09_15h17.46.272,Stroop Task-Lab in Psychology (Group Project),2022.2.4,60.01359908139606,
Yellow,yellow,Pila,blue,y,,,,,,,,,0,4,4,14,,,,,,,617.8766940000005,618.3766596999994,618.3766596999994,619.3767518000004,619.3767518000004,620.8767055000008,620.8767055000008,623.8767432000004,None,0,,387752,001,2022-10-09_15h17.46.272,Stroop Task-Lab in Psychology (Group Project),2022.2.4,60.01359908139606,
Kesari,blue,Orange,orange,o,,,,,,,,,0,5,5,9,,,,,,,623.8767432000004,624.3770829000005,624.3770829000005,625.3769014999998,625.3769014999998,626.8768990000008,626.8768990000008,629.8768796000004,None,0,,387752,001,2022-10-09_15h17.46.272,Stroop Task-Lab in Psychology (Group Project),2022.2.4,60.01359908139606,
Red,red,Laal,orange,r,,,,,,,,,0,6,6,0,,,,,,,629.8768796000004,630.3769317999995,630.3769317999995,631.3769162000008,631.3769162000008,632.876983099999,632.876983099999,635.8768997000006,None,0,,387752,001,2022-10-09_15h17.46.272,Stroop Task-Lab in Psychology (Group Project),2022.2.4,60.01359908139606,
Laal,blue,Red,yellow,y,,,,,,,,,0,7,7,1,,,,,,,635.8768997000006,636.3771631,636.3771631,637.3766892000003,637.3766892000003,638.8771546999997,638.8771546999997,,y,1,1.7573846999985108,387752,001,2022-10-09_15h17.46.272,Stroop Task-Lab in Psychology (Group Project),2022.2.4,60.01359908139606,
Nila,orange,Blue,yellow,y,,,,,,,,,0,8,8,7,,,,,,,640.6603639999994,641.1606083999995,641.1606083999995,642.1606202999992,642.1606202999992,643.6603066000007,643.6603066000007,646.6604071000002,None,0,,387752,001,2022-10-09_15h17.46.272,Stroop Task-Lab in Psychology (Group Project),2022.2.4,60.01359908139606,
Laal,blue,Red,yellow,y,,,,,,,,,0,9,9,1,,,,,,,646.6604071000002,647.1604568999992,647.1604568999992,648.1604353999992,648.1604353999992,649.6606677,649.6606677,652.6605103000002,None,0,,387752,001,2022-10-09_15h17.46.272,Stroop Task-Lab in Psychology (Group Project),2022.2.4,60.01359908139606,
Blue,blue,Nila,red,b,,,,,,,,,0,10,10,4,,,,,,,652.6605103000002,653.1605172,653.1605172,654.1605328000005,654.1605328000005,655.6606057000008,655.6606057000008,658.660726099999,None,0,,387752,001,2022-10-09_15h17.46.272,Stroop Task-Lab in Psychology (Group Project),2022.2.4,60.01359908139606,
Blue,blue,Nila,red,b,,,,,,,,,0,11,11,4,,,,,,,658.660726099999,659.1607356999993,659.1607356999993,660.1607495999997,660.1607495999997,661.6607518000001,661.6441598000001,,b,1,0.6078513999982533,387752,001,2022-10-09_15h17.46.272,Stroop Task-Lab in Psychology (Group Project),2022.2.4,60.01359908139606,
Pila,blue,Yellow,orange,o,,,,,,,,,0,12,12,13,,,,,,,662.2773959000006,662.7775380000003,662.7775380000003,663.7773988000008,663.7773988000008,665.2773378999991,665.2773378999991,,o,1,0.9847302999987733,387752,001,2022-10-09_15h17.46.272,Stroop Task-Lab in Psychology (Group Project),2022.2.4,60.01359908139606,
Nila,orange,Blue,yellow,y,,,,,,,,,0,13,13,7,,,,,,,666.2940978000006,666.7938207000007,666.7938207000007,667.7940830999996,667.7940830999996,669.2941807999996,669.2941807999996,,y,1,1.6392527999996673,387752,001,2022-10-09_15h17.46.272,Stroop Task-Lab in Psychology (Group Project),2022.2.4,60.01359908139606,
Yellow,yellow,Pila,blue,y,,,,,,,,,0,14,14,14,,,,,,,670.9609084000003,671.4609261999994,671.4609261999994,672.4609282000001,672.4609282000001,673.9610811000002,673.9610811000002,,y,1,1.0599458999986382,387752,001,2022-10-09_15h17.46.272,Stroop Task-Lab in Psychology (Group Project),2022.2.4,60.01359908139606,
Yellow,red,Pila,yellow,r,,,,,,,,,0,15,15,12,,,,,,,675.0443083999999,675.5442679999996,675.5442679999996,676.5442844999998,676.5442844999998,678.0441623000006,678.0441623000006,,r,1,1.1012640000008105,387752,001,2022-10-09_15h17.46.272,Stroop Task-Lab in Psychology (Group Project),2022.2.4,60.01359908139606,
Kesari,orange,Orange,blue,b,,,,,,,,,1,0,16,11,,,,,,,679.1777889000005,679.6778580999999,679.6778580999999,680.6777679000006,680.6777679000006,682.1777345999999,682.1777345999999,685.1776972000007,None,0,,387752,001,2022-10-09_15h17.46.272,Stroop Task-Lab in Psychology (Group Project),2022.2.4,60.01359908139606,
Yellow,red,Pila,yellow,r,,,,,,,,,1,1,17,12,,,,,,,685.1776972000007,685.6777340999997,685.6777340999997,686.6777017000004,686.6777017000004,688.1778068000003,688.1778068000003,691.1780471999991,None,0,,387752,001,2022-10-09_15h17.46.272,Stroop Task-Lab in Psychology (Group Project),2022.2.4,60.01359908139606,
Pila,orange,Yellow,blue,b,,,,,,,,,1,2,18,15,,,,,,,691.1780471999991,691.6777199000007,691.6777199000007,692.6778544000008,692.6778544000008,694.1779217999992,694.1779217999992,,b,1,0.3803454999997484,387752,001,2022-10-09_15h17.46.272,Stroop Task-Lab in Psychology (Group Project),2022.2.4,60.01359908139606,
Yellow,red,Pila,yellow,r,,,,,,,,,1,3,19,12,,,,,,,694.5778398000002,695.0778377999995,695.0778377999995,696.0780075999992,696.0780075999992,697.5781277999995,697.5781277999995,,r,1,0.8350802999993903,387752,001,2022-10-09_15h17.46.272,Stroop Task-Lab in Psychology (Group Project),2022.2.4,60.01359908139606,
Red,red,Laal,orange,r,,,,,,,,,1,4,20,0,,,,,,,698.4448849,698.9447020999996,698.9447020999996,699.9446267999992,699.9446267999992,701.4447132000005,701.4447132000005,,r,1,0.7900018999989697,387752,001,2022-10-09_15h17.46.272,Stroop Task-Lab in Psychology (Group Project),2022.2.4,60.01359908139606,
Red,blue,Laal,yellow,b,,,,,,,,,1,5,21,3,,,,,,,702.2614732999991,702.7612957000001,702.7612957000001,703.7616077999992,703.7616077999992,705.2614286000007,705.2614286000007,708.2617011999992,None,0,,387752,001,2022-10-09_15h17.46.272,Stroop Task-Lab in Psychology (Group Project),2022.2.4,60.01359908139606,
Blue,blue,Nila,red,b,,,,,,,,,1,6,22,4,,,,,,,708.2617011999992,708.7614881999998,708.7614881999998,709.7617112999997,709.7617112999997,711.2615748000007,711.2615748000007,714.2615191000004,None,0,,387752,001,2022-10-09_15h17.46.272,Stroop Task-Lab in Psychology (Group Project),2022.2.4,60.01359908139606,
Orange,red,kesari,red,r,,,,,,,,,1,7,23,8,,,,,,,714.2615191000004,714.7616113999993,714.7616113999993,715.7615791000007,715.7615791000007,717.2616247999995,717.2616247999995,720.2616491000008,None,0,,387752,001,2022-10-09_15h17.46.272,Stroop Task-Lab in Psychology (Group Project),2022.2.4,60.01359908139606,
Pila,blue,Yellow,orange,o,,,,,,,,,1,8,24,13,,,,,,,720.2616491000008,720.7615253000004,720.7615253000004,721.7616321000005,721.7616321000005,723.2617348000003,723.2617348000003,726.2616935999995,None,0,,387752,001,2022-10-09_15h17.46.272,Stroop Task-Lab in Psychology (Group Project),2022.2.4,60.01359908139606,
Kesari,blue,Orange,orange,o,,,,,,,,,1,9,25,9,,,,,,,726.2616935999995,726.7618550000007,726.7618550000007,727.7451163999995,727.7451163999995,729.2447424000002,729.2614386999994,,o,1,0.007627200000570156,387752,001,2022-10-09_15h17.46.272,Stroop Task-Lab in Psychology (Group Project),2022.2.4,60.01359908139606,
Pila,orange,Yellow,blue,b,,,,,,,,,1,10,26,15,,,,,,,729.2948245000007,729.7785339999991,729.7950808000005,730.7785437999992,730.7785437999992,732.2785655999996,732.2785655999996,,b,1,0.06950660000075004,387752,001,2022-10-09_15h17.46.272,Stroop Task-Lab in Psychology (Group Project),2022.2.4,60.01359908139606,
Red,blue,Laal,yellow,b,,,,,,,,,1,11,27,3,,,,,,,732.3785004999991,732.8784828999997,732.8784828999997,733.8784047999998,733.8784047999998,735.3784718000006,735.3784718000006,738.378598199999,None,0,,387752,001,2022-10-09_15h17.46.272,Stroop Task-Lab in Psychology (Group Project),2022.2.4,60.01359908139606,
Blue,blue,Nila,red,b,,,,,,,,,1,12,28,4,,,,,,,738.378598199999,738.8788361999996,738.8788361999996,739.8786067000001,739.8786067000001,741.378718599999,741.378718599999,,b,1,0.32240139999885287,387752,001,2022-10-09_15h17.46.272,Stroop Task-Lab in Psychology (Group Project),2022.2.4,60.01359908139606,
Red,orange,Laal,red,o,,,,,,,,,1,13,29,2,,,,,,,741.728892699999,742.2287331000007,742.2287331000007,743.2286413000002,743.2286413000002,744.7286774000004,744.7286774000004,747.7289548999997,None,0,,387752,001,2022-10-09_15h17.46.272,Stroop Task-Lab in Psychology (Group Project),2022.2.4,60.01359908139606,
Nila,orange,Blue,yellow,y,,,,,,,,,1,14,30,7,,,,,,,747.7289548999997,748.2289266000007,748.2289266000007,749.2289861999998,749.2289861999998,750.7287462000004,750.7287462000004,753.7289321000007,None,0,,387752,001,2022-10-09_15h17.46.272,Stroop Task-Lab in Psychology (Group Project),2022.2.4,60.01359908139606,
Orange,yellow,Kesari,blue,y,,,,,,,,,1,15,31,10,,,,,,,753.7289321000007,754.2288024999998,754.2288024999998,755.2288576999999,755.2288576999999,756.7290169000007,756.7290169000007,759.7289662999992,None,0,,387752,001,2022-10-09_15h17.46.272,Stroop Task-Lab in Psychology (Group Project),2022.2.4,60.01359908139606,
Yellow,yellow,Pila,blue,y,,,,,,,,,2,0,32,14,,,,,,,759.7289662999992,760.2290486999991,760.2290486999991,761.2286968000008,761.2286968000008,762.7287300999997,762.7287300999997,765.7325001999998,None,0,,387752,001,2022-10-09_15h17.46.272,Stroop Task-Lab in Psychology (Group Project),2022.2.4,60.01359908139606,
Nila,orange,Blue,yellow,y,,,,,,,,,2,1,33,7,,,,,,,765.7325001999998,766.2288418999997,766.2455238000002,767.2289137000007,767.2289137000007,768.7288934999997,768.7288934999997,771.7288492000007,None,0,,387752,001,2022-10-09_15h17.46.272,Stroop Task-Lab in Psychology (Group Project),2022.2.4,60.01359908139606,
Red,blue,Laal,yellow,b,,,,,,,,,2,2,34,3,,,,,,,771.7288492000007,772.2292116999997,772.2292116999997,773.212590699999,773.212590699999,774.7125323,774.7125323,,b,1,1.6165961999977299,387752,001,2022-10-09_15h17.46.272,Stroop Task-Lab in Psychology (Group Project),2022.2.4,60.01359908139606,
Orange,red,kesari,red,r,,,,,,,,,2,3,35,8,,,,,,,776.3460797999996,776.8456403,776.8456403,777.8461246000006,777.8461246000006,779.3459626999993,779.3459626999993,,r,1,0.7746570999988762,387752,001,2022-10-09_15h17.46.272,Stroop Task-Lab in Psychology (Group Project),2022.2.4,60.01359908139606,
Orange,red,kesari,red,r,,,,,,,,,2,4,36,8,,,,,,,780.1459990999992,780.6461058000004,780.6461058000004,781.6459782000002,781.6459782000002,783.1461705999991,783.1461705999991,786.1460334999992,None,0,,387752,001,2022-10-09_15h17.46.272,Stroop Task-Lab in Psychology (Group Project),2022.2.4,60.01359908139606,
Pila,blue,Yellow,orange,o,,,,,,,,,2,5,37,13,,,,,,,786.1460334999992,786.6459670999993,786.6459670999993,787.6461829,787.6461829,789.1460057999993,789.1460057999993,792.1460881000003,None,0,,387752,001,2022-10-09_15h17.46.272,Stroop Task-Lab in Psychology (Group Project),2022.2.4,60.01359908139606,
Blue,red,Nila,yellow,r,,,,,,,,,2,6,38,6,,,,,,,792.1460881000003,792.6462190999991,792.6462190999991,793.6463330999995,793.6463330999995,795.1461749999999,795.1461749999999,798.1462886999998,None,0,,387752,001,2022-10-09_15h17.46.272,Stroop Task-Lab in Psychology (Group Project),2022.2.4,60.01359908139606,
Kesari,orange,Orange,blue,b,,,,,,,,,2,7,39,11,,,,,,,798.1462886999998,798.6463005000005,798.6463005000005,799.6465355,799.6465355,801.1462045999997,801.1462045999997,804.1463227000004,None,0,,387752,001,2022-10-09_15h17.46.272,Stroop Task-Lab in Psychology (Group Project),2022.2.4,60.01359908139606,
Red,orange,Laal,red,o,,,,,,,,,2,8,40,2,,,,,,,804.1463227000004,804.6298009999991,804.6462217000008,805.6463401000001,805.6463401000001,807.1465028000002,807.1298611999991,810.1297565000004,None,0,,387752,001,2022-10-09_15h17.46.272,Stroop Task-Lab in Psychology (Group Project),2022.2.4,60.01359908139606,
Kesari,orange,Orange,blue,b,,,,,,,,,2,9,41,11,,,,,,,810.1297565000004,810.6463977999992,810.6298568999991,811.646434799999,811.646434799999,813.1464054999997,813.1464054999997,816.1465743999997,None,0,,387752,001,2022-10-09_15h17.46.272,Stroop Task-Lab in Psychology (Group Project),2022.2.4,60.01359908139606,
Red,orange,Laal,red,o,,,,,,,,,2,10,42,2,,,,,,,816.1465743999997,816.6298241000004,816.6465045000004,817.6300859999992,817.6300859999992,819.129848999999,819.129848999999,822.1300049000001,None,0,,387752,001,2022-10-09_15h17.46.272,Stroop Task-Lab in Psychology (Group Project),2022.2.4,60.01359908139606,
Yellow,yellow,Pila,blue,y,,,,,,,,,2,11,43,14,,,,,,,822.1300049000001,822.6302183000007,822.6302183000007,823.6300011000003,823.6300011000003,825.1302090999998,825.1302090999998,828.1299930000005,None,0,,387752,001,2022-10-09_15h17.46.272,Stroop Task-Lab in Psychology (Group Project),2022.2.4,60.01359908139606,
Orange,yellow,Kesari,blue,y,,,,,,,,,2,12,44,10,,,,,,,828.1299930000005,828.6301399000004,828.6301399000004,829.6301982999994,829.6301982999994,831.1304552000001,831.1304552000001,834.1303798000008,None,0,,387752,001,2022-10-09_15h17.46.272,Stroop Task-Lab in Psychology (Group Project),2022.2.4,60.01359908139606,
Nila,red,Blue,orange,o,,,,,,,,,2,13,45,5,,,,,,,834.1303798000008,834.6303645999997,834.6303645999997,835.6303384999992,835.6303384999992,837.1300418999999,837.1300418999999,840.1302871999997,None,0,,387752,001,2022-10-09_15h17.46.272,Stroop Task-Lab in Psychology (Group Project),2022.2.4,60.01359908139606,
Blue,red,Nila,yellow,r,,,,,,,,,2,14,46,6,,,,,,,840.1302871999997,840.6304142999998,840.6304142999998,841.6303372000002,841.6303372000002,843.1304086,843.1304086,,r,1,0.9072151999989728,387752,001,2022-10-09_15h17.46.272,Stroop Task-Lab in Psychology (Group Project),2022.2.4,60.01359908139606,
Laal,blue,Red,yellow,y,,,,,,,,,2,15,47,1,,,,,,,844.0636983999993,844.5637196999996,844.5637196999996,845.5636981999996,845.5636981999996,847.0638485,847.0638485,,y,1,1.2155879999991157,387752,001,2022-10-09_15h17.46.272,Stroop Task-Lab in Psychology (Group Project),2022.2.4,60.01359908139606,
Pila,orange,Yellow,blue,b,,,,,,,,,3,0,48,15,,,,,,,848.2970079000006,848.7972033999995,848.7972033999995,849.7970965000004,849.7970965000004,851.2970726000003,851.2970726000003,,b,1,0.06810810000024503,387752,001,2022-10-09_15h17.46.272,Stroop Task-Lab in Psychology (Group Project),2022.2.4,60.01359908139606,
Orange,yellow,Kesari,blue,y,,,,,,,,,3,1,49,10,,,,,,,851.3972606999996,851.8970547999998,851.8970547999998,852.8969911000004,852.8969911000004,854.3973084999998,854.3973084999998,857.3972924999998,None,0,,387752,001,2022-10-09_15h17.46.272,Stroop Task-Lab in Psychology (Group Project),2022.2.4,60.01359908139606,
Red,red,Laal,orange,r,,,,,,,,,3,2,50,0,,,,,,,857.3972924999998,857.8972642000008,857.8972642000008,858.8974230000003,858.8974230000003,860.3974928000007,860.3974928000007,863.3974622000005,None,0,,387752,001,2022-10-09_15h17.46.272,Stroop Task-Lab in Psychology (Group Project),2022.2.4,60.01359908139606,
Red,orange,Laal,red,o,,,,,,,,,3,3,51,2,,,,,,,863.3974622000005,863.8975293000003,863.8975293000003,864.8975742000002,864.8975742000002,866.3973779000007,866.3973779000007,869.3975699999992,None,0,,387752,001,2022-10-09_15h17.46.272,Stroop Task-Lab in Psychology (Group Project),2022.2.4,60.01359908139606,
Pila,orange,Yellow,blue,b,,,,,,,,,3,4,52,15,,,,,,,869.3975699999992,869.8974242000004,869.8974242000004,870.8998307999991,870.8998307999991,872.4143122000005,872.3974696999994,875.3974734000003,None,0,,387752,001,2022-10-09_15h17.46.272,Stroop Task-Lab in Psychology (Group Project),2022.2.4,60.01359908139606,
Pila,blue,Yellow,orange,o,,,,,,,,,3,5,53,13,,,,,,,875.3974734000003,875.8976001999999,875.8976001999999,876.8974457999993,876.8974457999993,878.3974349,878.3974349,881.3977773000006,None,0,,387752,001,2022-10-09_15h17.46.272,Stroop Task-Lab in Psychology (Group Project),2022.2.4,60.01359908139606,
,,,,,,,,,,,,,,,,,,,,,,,881.3977773000006,881.8976977999992,881.8976977999992,,,,,,,,,,,,,,,
