word1,color1,word2,color2,corr_resp,trials_1.thisRepN,trials_1.thisTrialN,trials_1.thisN,trials_1.thisIndex,trials_2.thisRepN,trials_2.thisTrialN,trials_2.thisN,trials_2.thisIndex,trials_3.thisRepN,trials_3.thisTrialN,trials_3.thisN,trials_3.thisIndex,text_2.started,text_2.stopped,text_4.started,text_4.stopped,fixation.started,sti.started,fixation.stopped,sti.stopped,dist.started,key_resp.started,dist.stopped,key_resp.stopped,key_resp.keys,key_resp.corr,key_resp.rt,participant,session,date,expName,psychopyVersion,frameRate,
Pila,blue,Yellow,orange,o,0,0,0,13,,,,,,,,,16.2078429999965,17.208872399991378,17.208872399991378,22.234945399992284,22.234945399992284,22.710691000000224,22.743727299995953,23.70778739999514,23.70778739999514,25.203786300000502,25.220410499998252,28.217344399992726,None,0,,829678,001,2022-10-09_14h33.30.867,Stroop Task-Lab in Psychology (Group Project),2022.2.4,60.12607234953491,
Nila,red,Blue,orange,o,0,1,1,5,,,,,,,,,,,,,28.217344399992726,28.710356199997477,28.727063099999214,29.708339899996645,29.708339899996645,31.20368839999719,31.220485799989547,34.21266779999132,None,0,,829678,001,2022-10-09_14h33.30.867,Stroop Task-Lab in Psychology (Group Project),2022.2.4,60.12607234953491,
Red,red,Laal,orange,r,0,2,2,0,,,,,,,,,,,,,34.21266779999132,34.71121699998912,34.72774709999794,35.70837059999758,35.70837059999758,37.204232199990656,37.22075889998814,40.21275729998888,None,0,,829678,001,2022-10-09_14h33.30.867,Stroop Task-Lab in Psychology (Group Project),2022.2.4,60.12607234953491,
Pila,orange,Yellow,blue,b,0,3,3,15,,,,,,,,,,,,,40.21275729998888,40.71145989999059,40.727966799997375,41.708475499995984,41.708475499995984,43.20458769999095,43.22132269998838,46.21326799999224,None,0,,829678,001,2022-10-09_14h33.30.867,Stroop Task-Lab in Psychology (Group Project),2022.2.4,60.12607234953491,
Nila,orange,Blue,yellow,y,0,4,4,7,,,,,,,,,,,,,46.21326799999224,46.71163969999179,46.72818359998928,47.708978199996636,47.708978199996636,49.20518469999661,49.2215431999939,52.213489199988544,None,0,,829678,001,2022-10-09_14h33.30.867,Stroop Task-Lab in Psychology (Group Project),2022.2.4,60.12607234953491,
Yellow,red,Pila,yellow,r,0,5,5,12,,,,,,,,,,,,,52.213489199988544,52.712710199994035,52.729062399987015,53.709339699998964,53.709339699998964,55.20541769999545,55.22201299999142,,None,0,,829678,001,2022-10-09_14h33.30.867,Stroop Task-Lab in Psychology (Group Project),2022.2.4,60.12607234953491,
Orange,red,kesari,red,r,0,6,6,8,,,,,,,,,,,,,58.2154814999958,58.71222269999271,58.72927820000041,59.709593299994594,59.709593299994594,61.20568829998956,61.22207209999033,,None,0,,829678,001,2022-10-09_14h33.30.867,Stroop Task-Lab in Psychology (Group Project),2022.2.4,60.12607234953491,
Orange,yellow,Kesari,blue,y,0,7,7,10,,,,,,,,,,,,,64.21475749999809,64.69616359999054,64.7295054999995,65.70997579999676,65.70997579999676,67.20627349999268,67.2225405999925,,None,0,,829678,001,2022-10-09_14h33.30.867,Stroop Task-Lab in Psychology (Group Project),2022.2.4,60.12607234953491,
Red,blue,Laal,yellow,b,0,8,8,3,,,,,,,,,,,,,70.21442119999847,70.69671049999306,70.72972319999826,71.7104008999886,71.7104008999886,73.20652319998771,73.22299229999771,,None,0,,829678,001,2022-10-09_14h33.30.867,Stroop Task-Lab in Psychology (Group Project),2022.2.4,60.12607234953491,
Nila,orange,Blue,yellow,y,0,9,9,7,,,,,,,,,,,,,76.2150915999955,76.69693320000079,76.7300547999912,77.71113909999258,77.71113909999258,79.20669979999366,79.2232401999936,,None,0,,829678,001,2022-10-09_14h33.30.867,Stroop Task-Lab in Psychology (Group Project),2022.2.4,60.12607234953491,
Red,orange,Laal,red,o,0,10,10,2,,,,,,,,,,,,,82.21526689999155,82.69735919999948,82.73041859999648,83.71118009999918,83.71118009999918,85.20753359999799,85.22381399999722,,o,1,0.07661630000802688,829678,001,2022-10-09_14h33.30.867,Stroop Task-Lab in Psychology (Group Project),2022.2.4,60.12607234953491,
Kesari,orange,Orange,blue,b,0,11,11,11,,,,,,,,,,,,,85.30883919999178,85.80537469999399,85.82204819998879,86.80267459999595,86.80267459999595,88.29886070000066,88.3152160999889,91.30690959999629,None,0,,829678,001,2022-10-09_14h33.30.867,Stroop Task-Lab in Psychology (Group Project),2022.2.4,60.12607234953491,
Blue,blue,Nila,red,b,0,12,12,4,,,,,,,,,,,,,91.30690959999629,91.80620719998842,91.80620719998842,92.80352279999352,92.80352279999352,94.29894769999373,94.31602129999374,97.30749669999932,None,0,,829678,001,2022-10-09_14h33.30.867,Stroop Task-Lab in Psychology (Group Project),2022.2.4,60.12607234953491,
Orange,yellow,Kesari,blue,y,0,13,13,10,,,,,,,,,,,,,97.30749669999932,97.80600539999432,97.82305729998916,98.80384339999,98.80384339999,100.29951029999938,100.31598579999991,103.30772969999816,None,0,,829678,001,2022-10-09_14h33.30.867,Stroop Task-Lab in Psychology (Group Project),2022.2.4,60.12607234953491,
Nila,red,Blue,orange,o,0,14,14,5,,,,,,,,,,,,,103.30772969999816,103.80680789999315,103.82277269999031,104.8041874999908,104.8041874999908,106.29983879999781,106.31655319999845,109.30813849999686,None,0,,829678,001,2022-10-09_14h33.30.867,Stroop Task-Lab in Psychology (Group Project),2022.2.4,60.12607234953491,
Yellow,yellow,Pila,blue,y,0,15,15,14,,,,,,,,,,,,,109.30813849999686,109.80704519999563,109.82351379998727,110.80425589998777,110.80425589998777,112.30012699999497,112.31713859998854,115.30858749999607,None,0,,829678,001,2022-10-09_14h33.30.867,Stroop Task-Lab in Psychology (Group Project),2022.2.4,60.12607234953491,
Pila,orange,Yellow,blue,b,1,0,16,15,,,,,,,,,,,,,115.30858749999607,115.80723659999785,115.82368469999346,116.80481159999908,116.80481159999908,118.300685899987,118.3173761999933,121.30885950000084,None,0,,829678,001,2022-10-09_14h33.30.867,Stroop Task-Lab in Psychology (Group Project),2022.2.4,60.12607234953491,
Red,orange,Laal,red,o,1,1,17,2,,,,,,,,,,,,,121.30885950000084,121.80764339999587,121.82460549999087,122.80492389999563,122.80492389999563,124.30091469999752,124.31769879999047,,None,0,,829678,001,2022-10-09_14h33.30.867,Stroop Task-Lab in Psychology (Group Project),2022.2.4,60.12607234953491,
Blue,red,Nila,yellow,r,1,2,18,6,,,,,,,,,,,,,127.3092561999947,127.79152819998853,127.82432799998787,128.80516669999633,128.80516669999633,130.3013815999875,130.31783819998964,,None,0,,829678,001,2022-10-09_14h33.30.867,Stroop Task-Lab in Psychology (Group Project),2022.2.4,60.12607234953491,
Pila,orange,Yellow,blue,b,1,3,19,15,,,,,,,,,,,,,133.30920399999013,133.80849339999259,133.80849339999259,134.80566479999106,134.80566479999106,136.3016607999889,136.31821969999874,,None,0,,829678,001,2022-10-09_14h33.30.867,Stroop Task-Lab in Psychology (Group Project),2022.2.4,60.12607234953491,
Yellow,red,Pila,yellow,r,1,4,20,12,,,,,,,,,,,,,139.30957449998823,139.79223129998718,139.80860779999057,140.80560479999986,140.80560479999986,142.3018832999951,142.3187171999889,,r,1,0.9096513999975286,829678,001,2022-10-09_14h33.30.867,Stroop Task-Lab in Psychology (Group Project),2022.2.4,60.12607234953491,
Pila,blue,Yellow,orange,o,1,5,21,13,,,,,,,,,,,,,143.23234409998986,143.73120439999911,143.73120439999911,144.72849499998847,144.72849499998847,146.22426779998932,146.2411437999981,149.23268259999168,None,0,,829678,001,2022-10-09_14h33.30.867,Stroop Task-Lab in Psychology (Group Project),2022.2.4,60.12607234953491,
Kesari,blue,Orange,orange,o,1,6,22,9,,,,,,,,,,,,,149.23268259999168,149.73124739999184,149.7482994999882,150.72913439999684,150.72913439999684,152.22497099998873,152.2412295999966,155.233086799999,None,0,,829678,001,2022-10-09_14h33.30.867,Stroop Task-Lab in Psychology (Group Project),2022.2.4,60.12607234953491,
Yellow,yellow,Pila,blue,y,1,7,23,14,,,,,,,,,,,,,155.233086799999,155.73209649999626,155.7485585999966,156.72903979998955,156.72903979998955,158.22525599999062,158.24173589999555,161.2334611999977,None,0,,829678,001,2022-10-09_14h33.30.867,Stroop Task-Lab in Psychology (Group Project),2022.2.4,60.12607234953491,
Yellow,red,Pila,yellow,r,1,8,24,12,,,,,,,,,,,,,161.2334611999977,161.73234119999688,161.74919799999043,162.72988499999337,162.72988499999337,164.22549879999133,164.24197579998872,167.23372859999654,None,0,,829678,001,2022-10-09_14h33.30.867,Stroop Task-Lab in Psychology (Group Project),2022.2.4,60.12607234953491,
Kesari,blue,Orange,orange,o,1,9,25,9,,,,,,,,,,,,,167.23372859999654,167.7323209999886,167.74917729999288,168.73006439999153,168.73006439999153,170.22548119998828,170.24217230000068,173.2341424999904,None,0,,829678,001,2022-10-09_14h33.30.867,Stroop Task-Lab in Psychology (Group Project),2022.2.4,60.12607234953491,
Kesari,orange,Orange,blue,b,1,10,26,11,,,,,,,,,,,,,173.2341424999904,173.7328712999879,173.74949899999774,174.73019959998783,174.73019959998783,176.22622579999734,176.24266530000023,179.23434189999534,None,0,,829678,001,2022-10-09_14h33.30.867,Stroop Task-Lab in Psychology (Group Project),2022.2.4,60.12607234953491,
Blue,red,Nila,yellow,r,1,11,27,6,,,,,,,,,,,,,179.23434189999534,179.7332153999887,179.74962469999446,180.73059599999397,180.73059599999397,182.2263294000004,182.24297049999586,,None,0,,829678,001,2022-10-09_14h33.30.867,Stroop Task-Lab in Psychology (Group Project),2022.2.4,60.12607234953491,
Kesari,orange,Orange,blue,b,1,12,28,11,,,,,,,,,,,,,185.2349380999949,185.71710489998804,185.75021309999283,186.7310989999969,186.7310989999969,188.22707809999702,188.24356559998705,,None,0,,829678,001,2022-10-09_14h33.30.867,Stroop Task-Lab in Psychology (Group Project),2022.2.4,60.12607234953491,
Nila,red,Blue,orange,o,1,13,29,5,,,,,,,,,,,,,191.23543119999522,191.71772329999658,191.75061879999703,192.73106009999174,192.73106009999174,194.2272542999999,194.24391459999606,,None,0,,829678,001,2022-10-09_14h33.30.867,Stroop Task-Lab in Psychology (Group Project),2022.2.4,60.12607234953491,
Yellow,red,Pila,yellow,r,1,14,30,12,,,,,,,,,,,,,197.23577579999983,197.71795349998865,197.75114889998804,198.73156749999907,198.73156749999907,200.22762059999513,200.24429319999763,,None,0,,829678,001,2022-10-09_14h33.30.867,Stroop Task-Lab in Psychology (Group Project),2022.2.4,60.12607234953491,
Blue,blue,Nila,red,b,1,15,31,4,,,,,,,,,,,,,203.23603439998988,203.71825729998818,203.75127149999025,204.73228409999865,204.73228409999865,206.22820699999284,206.2447389000008,,None,0,,829678,001,2022-10-09_14h33.30.867,Stroop Task-Lab in Psychology (Group Project),2022.2.4,60.12607234953491,
Red,orange,Laal,red,o,2,0,32,2,,,,,,,,,,,,,209.23631459999888,209.71827459998894,209.75137439998798,210.73250719999487,210.73250719999487,212.2283380000008,212.24508769999375,,None,0,,829678,001,2022-10-09_14h33.30.867,Stroop Task-Lab in Psychology (Group Project),2022.2.4,60.12607234953491,
Red,orange,Laal,red,o,2,1,33,2,,,,,,,,,,,,,215.23689559999912,215.71888770000078,215.7521745999984,216.73262979999708,216.73262979999708,218.22828089998802,218.24496989999898,,None,0,,829678,001,2022-10-09_14h33.30.867,Stroop Task-Lab in Psychology (Group Project),2022.2.4,60.12607234953491,
Laal,blue,Red,yellow,y,2,2,34,1,,,,,,,,,,,,,221.2371787000011,221.71930189999694,221.75240420000046,222.73302709999552,222.73302709999552,224.22899479999614,224.24550949998957,,None,0,,829678,001,2022-10-09_14h33.30.867,Stroop Task-Lab in Psychology (Group Project),2022.2.4,60.12607234953491,
Pila,blue,Yellow,orange,o,2,3,35,13,,,,,,,,,,,,,227.23764899998787,227.71954639999603,227.75273959999322,228.73364669999864,228.73364669999864,230.22955979999097,230.2460599999904,,y,0,0.6541693000035593,829678,001,2022-10-09_14h33.30.867,Stroop Task-Lab in Psychology (Group Project),2022.2.4,60.12607234953491,
Nila,orange,Blue,yellow,y,2,4,36,7,,,,,,,,,,,,,230.9134020999918,231.40950859998702,231.42626199999359,232.40683389999322,232.40683389999322,233.90293289998954,233.91956939999363,236.91130059999705,None,0,,829678,001,2022-10-09_14h33.30.867,Stroop Task-Lab in Psychology (Group Project),2022.2.4,60.12607234953491,
Red,blue,Laal,yellow,b,2,5,37,3,,,,,,,,,,,,,236.91130059999705,237.40973719999602,237.4270558999997,238.40734849999717,238.40734849999717,239.90352139998868,239.92008139999234,242.91164879999997,None,0,,829678,001,2022-10-09_14h33.30.867,Stroop Task-Lab in Psychology (Group Project),2022.2.4,60.12607234953491,
Red,red,Laal,orange,r,2,6,38,0,,,,,,,,,,,,,242.91164879999997,243.4103027999954,243.42710149999766,244.40720709999732,244.40720709999732,245.90352319998783,245.92043999998714,248.91185999999288,None,0,,829678,001,2022-10-09_14h33.30.867,Stroop Task-Lab in Psychology (Group Project),2022.2.4,60.12607234953491,
Pila,blue,Yellow,orange,o,2,7,39,13,,,,,,,,,,,,,248.91185999999288,249.4104062999977,249.42723979998846,250.40784359999816,250.40784359999816,251.90382619999582,251.92034219999914,254.91210819999105,None,0,,829678,001,2022-10-09_14h33.30.867,Stroop Task-Lab in Psychology (Group Project),2022.2.4,60.12607234953491,
Orange,red,kesari,red,r,2,8,40,8,,,,,,,,,,,,,254.91210819999105,255.4114111999952,255.4114111999952,256.4083624999912,256.4083624999912,257.9045646000013,257.92087419999007,,r,1,1.559805899989442,829678,001,2022-10-09_14h33.30.867,Stroop Task-Lab in Psychology (Group Project),2022.2.4,60.12607234953491,
Pila,orange,Yellow,blue,b,2,9,41,15,,,,,,,,,,,,,259.4827948999882,259.9820638999954,259.99875549999706,260.9796207999898,260.9796207999898,262.47540269998717,262.4919832999876,,b,1,0.21938589999626856,829678,001,2022-10-09_14h33.30.867,Stroop Task-Lab in Psychology (Group Project),2022.2.4,60.12607234953491,
Orange,red,kesari,red,r,2,10,42,8,,,,,,,,,,,,,262.728303099997,263.22329139999056,263.2400692999945,264.22074989999237,264.22074989999237,265.71613409998827,265.73316969998996,268.7246479999885,None,0,,829678,001,2022-10-09_14h33.30.867,Stroop Task-Lab in Psychology (Group Project),2022.2.4,60.12607234953491,
Red,blue,Laal,yellow,b,2,11,43,3,,,,,,,,,,,,,268.7246479999885,269.2235026999988,269.24019009999756,270.2208321999933,270.2208321999933,271.71653059999517,271.7329666000005,274.7249048999947,None,0,,829678,001,2022-10-09_14h33.30.867,Stroop Task-Lab in Psychology (Group Project),2022.2.4,60.12607234953491,
Yellow,yellow,Pila,blue,y,2,12,44,14,,,,,,,,,,,,,274.7249048999947,275.224043299997,275.224043299997,276.2210148000013,276.2210148000013,277.7167991999886,277.7335835999984,280.7253592999914,None,0,,829678,001,2022-10-09_14h33.30.867,Stroop Task-Lab in Psychology (Group Project),2022.2.4,60.12607234953491,
Kesari,blue,Orange,orange,o,2,13,45,9,,,,,,,,,,,,,280.7253592999914,281.2243338999979,281.24101469999005,282.22119229999953,282.22119229999953,283.71742950000043,283.7340108999924,286.7269296999875,None,0,,829678,001,2022-10-09_14h33.30.867,Stroop Task-Lab in Psychology (Group Project),2022.2.4,60.12607234953491,
Orange,yellow,Kesari,blue,y,2,14,46,10,,,,,,,,,,,,,286.7269296999875,287.2246674999915,287.24116089999734,288.2218920999876,288.2218920999876,289.7175847999897,289.73455559999275,,o,0,0.6737874999962514,829678,001,2022-10-09_14h33.30.867,Stroop Task-Lab in Psychology (Group Project),2022.2.4,60.12607234953491,
Blue,red,Nila,yellow,r,2,15,47,6,,,,,,,,,,,,,290.415562899987,290.91448089999903,290.91448089999903,291.9121668000007,291.9121668000007,293.40759589998925,293.4240384000004,296.41617060000135,None,0,,829678,001,2022-10-09_14h33.30.867,Stroop Task-Lab in Psychology (Group Project),2022.2.4,60.12607234953491,
Blue,blue,Nila,red,b,3,0,48,4,,,,,,,,,,,,,296.41617060000135,296.9146544999967,296.93130339999334,297.9119112999906,297.9119112999906,299.4082878999907,299.4249562999903,302.4165127000015,None,0,,829678,001,2022-10-09_14h33.30.867,Stroop Task-Lab in Psychology (Group Project),2022.2.4,60.12607234953491,
Laal,blue,Red,yellow,y,3,1,49,1,,,,,,,,,,,,,302.4165127000015,302.9151555999997,302.93184929998824,303.91223059999174,303.91223059999174,305.4083016999939,305.42510019999463,308.4167152999871,None,0,,829678,001,2022-10-09_14h33.30.867,Stroop Task-Lab in Psychology (Group Project),2022.2.4,60.12607234953491,
Blue,blue,Nila,red,b,3,2,50,4,,,,,,,,,,,,,308.4167152999871,308.91564899998775,308.9324479999923,309.9128181999986,309.9128181999986,311.408918599991,311.4256442999904,314.4174922999955,None,0,,829678,001,2022-10-09_14h33.30.867,Stroop Task-Lab in Psychology (Group Project),2022.2.4,60.12607234953491,
Kesari,blue,Orange,orange,o,3,3,51,9,,,,,,,,,,,,,314.4174922999955,314.9159046999994,314.93253249999543,315.91335569998773,315.91335569998773,317.4088772999967,317.4256900999899,,None,0,,829678,001,2022-10-09_14h33.30.867,Stroop Task-Lab in Psychology (Group Project),2022.2.4,60.12607234953491,
Orange,yellow,Kesari,blue,y,3,4,52,10,,,,,,,,,,,,,320.4177580999967,320.9163147999934,320.9332340999972,321.9135124999884,321.9135124999884,323.4093717999931,323.4260062999965,,None,0,,829678,001,2022-10-09_14h33.30.867,Stroop Task-Lab in Psychology (Group Project),2022.2.4,60.12607234953491,
Nila,orange,Blue,yellow,y,3,5,53,7,,,,,,,,,,,,,326.41791509999894,326.91678749999846,326.933045400001,327.91385789999913,327.91385789999913,329.4096887999913,329.4263970999891,,None,0,,829678,001,2022-10-09_14h33.30.867,Stroop Task-Lab in Psychology (Group Project),2022.2.4,60.12607234953491,
Yellow,yellow,Pila,blue,y,3,6,54,14,,,,,,,,,,,,,332.4180779999879,332.90060280000034,332.9173291999905,333.9140824999922,333.9140824999922,335.4106155999907,335.4265657999931,,None,0,,829678,001,2022-10-09_14h33.30.867,Stroop Task-Lab in Psychology (Group Project),2022.2.4,60.12607234953491,
Red,blue,Laal,yellow,b,3,7,55,3,,,,,,,,,,,,,338.41881039999134,338.9008379000006,338.934096699988,339.91475479998917,339.91475479998917,341.4105140999891,341.4271640999941,,None,0,,829678,001,2022-10-09_14h33.30.867,Stroop Task-Lab in Psychology (Group Project),2022.2.4,60.12607234953491,
Red,red,Laal,orange,r,3,8,56,0,,,,,,,,,,,,,344.4192375999992,344.90124049999577,344.93419109999377,345.91486049999367,345.91486049999367,347.41062019999663,347.4274432999955,,None,0,,829678,001,2022-10-09_14h33.30.867,Stroop Task-Lab in Psychology (Group Project),2022.2.4,60.12607234953491,
Nila,red,Blue,orange,o,3,9,57,5,,,,,,,,,,,,,350.41913979999663,350.9013750000013,350.93430769999395,351.91543239999737,351.91543239999737,353.4113040999946,353.42762029998994,,None,0,,829678,001,2022-10-09_14h33.30.867,Stroop Task-Lab in Psychology (Group Project),2022.2.4,60.12607234953491,
Orange,red,kesari,red,r,3,10,58,8,,,,,,,,,,,,,356.4201261999988,356.9017179999937,356.93519439999363,357.91579210000054,357.91579210000054,359.4113800999912,359.42850749999343,,None,0,,829678,001,2022-10-09_14h33.30.867,Stroop Task-Lab in Psychology (Group Project),2022.2.4,60.12607234953491,
Laal,blue,Red,yellow,y,3,11,59,1,,,,,,,,,,,,,362.4200048999919,362.9024735999992,362.91857359999267,363.915783199991,363.915783199991,365.41191699999035,365.4288421999954,,None,0,,829678,001,2022-10-09_14h33.30.867,Stroop Task-Lab in Psychology (Group Project),2022.2.4,60.12607234953491,
Red,red,Laal,orange,r,3,12,60,0,,,,,,,,,,,,,368.4200392999919,368.90251409998746,368.91880559999845,369.8997410999873,369.8997410999873,371.4123006000009,371.4123006000009,,None,0,,829678,001,2022-10-09_14h33.30.867,Stroop Task-Lab in Psychology (Group Project),2022.2.4,60.12607234953491,
Kesari,orange,Orange,blue,b,3,13,61,11,,,,,,,,,,,,,374.4205973999924,374.9030125999998,374.9194822999998,375.91668929999287,375.91668929999287,377.4124640999944,377.42922089999774,,None,0,,829678,001,2022-10-09_14h33.30.867,Stroop Task-Lab in Psychology (Group Project),2022.2.4,60.12607234953491,
Blue,red,Nila,yellow,r,3,14,62,6,,,,,,,,,,,,,380.42098409999744,380.9034229999961,380.9197129999957,381.90024529999937,381.90024529999937,383.4130484999914,383.4130484999914,,None,0,,829678,001,2022-10-09_14h33.30.867,Stroop Task-Lab in Psychology (Group Project),2022.2.4,60.12607234953491,
Laal,blue,Red,yellow,y,3,15,63,1,,,,,,,,,,,,,386.42169869999634,386.9035239999939,386.9366777999967,387.9010472999944,387.9010472999944,389.4133226999984,389.4133226999984,,None,0,,829678,001,2022-10-09_14h33.30.867,Stroop Task-Lab in Psychology (Group Project),2022.2.4,60.12607234953491,
Red,red,Laal,orange,r,,,,,0,0,0,0,,,,,,,,,392.4369241999957,392.9038040000014,392.93667689998983,393.9012068000011,393.9012068000011,395.4135658999876,395.4135658999876,,None,0,,829678,001,2022-10-09_14h33.30.867,Stroop Task-Lab in Psychology (Group Project),2022.2.4,60.12607234953491,
Laal,blue,Red,yellow,y,,,,,0,1,1,1,,,,,,,,,398.4220193999936,398.9045053999871,398.92110809999576,399.9014630999882,399.9014630999882,401.41406409999763,401.41406409999763,,y,1,0.007720499997958541,829678,001,2022-10-09_14h33.30.867,Stroop Task-Lab in Psychology (Group Project),2022.2.4,60.12607234953491,
Red,orange,Laal,red,o,,,,,0,2,2,2,,,,,,,,,401.4471521999949,401.94595809999737,401.94595809999737,402.9433710000012,402.9433710000012,404.4391897999885,404.4555716999894,407.44751869999163,None,0,,829678,001,2022-10-09_14h33.30.867,Stroop Task-Lab in Psychology (Group Project),2022.2.4,60.12607234953491,
Red,blue,Laal,yellow,b,,,,,0,3,3,3,,,,,,,,,407.44751869999163,407.94626849998895,407.96260410000104,408.9437387999933,408.9437387999933,410.4396965999913,410.45582289999584,413.44825629999104,None,0,,829678,001,2022-10-09_14h33.30.867,Stroop Task-Lab in Psychology (Group Project),2022.2.4,60.12607234953491,
Blue,blue,Nila,red,b,,,,,0,4,4,4,,,,,,,,,413.44825629999104,413.94690029999765,413.96359200000006,414.9440120999934,414.9440120999934,416.4400303000002,416.45644169999287,419.448410099998,None,0,,829678,001,2022-10-09_14h33.30.867,Stroop Task-Lab in Psychology (Group Project),2022.2.4,60.12607234953491,
Nila,red,Blue,orange,o,,,,,0,5,5,5,,,,,,,,,419.448410099998,419.94689500000095,419.96337849998963,420.944387999989,420.944387999989,422.4401860999933,422.4567615999986,,None,0,,829678,001,2022-10-09_14h33.30.867,Stroop Task-Lab in Psychology (Group Project),2022.2.4,60.12607234953491,
Blue,red,Nila,yellow,r,,,,,0,6,6,6,,,,,,,,,425.4516413999954,425.93298539999523,425.96619619999547,426.94690319999063,426.94690319999063,428.4406178999925,428.4572344999906,,r,1,0.3678461000090465,829678,001,2022-10-09_14h33.30.867,Stroop Task-Lab in Psychology (Group Project),2022.2.4,60.12607234953491,
Nila,orange,Blue,yellow,y,,,,,0,7,7,7,,,,,,,,,428.83921059999557,429.33846410000115,429.3545790999924,430.3353640999994,430.3353640999994,431.8312756999949,431.84782659998746,434.83972959998937,None,0,,829678,001,2022-10-09_14h33.30.867,Stroop Task-Lab in Psychology (Group Project),2022.2.4,60.12607234953491,
Orange,red,kesari,red,r,,,,,0,8,8,8,,,,,,,,,434.83972959998937,435.33883299998706,435.3550775999902,436.33620130000054,436.33620130000054,437.8318345000007,437.84831889999623,440.83989779998956,None,0,,829678,001,2022-10-09_14h33.30.867,Stroop Task-Lab in Psychology (Group Project),2022.2.4,60.12607234953491,
Kesari,blue,Orange,orange,o,,,,,0,9,9,9,,,,,,,,,440.83989779998956,441.33914929999446,441.3557404999883,442.3361947999947,442.3361947999947,443.83205939999607,443.84845309999946,446.84048229998734,None,0,,829678,001,2022-10-09_14h33.30.867,Stroop Task-Lab in Psychology (Group Project),2022.2.4,60.12607234953491,
Orange,yellow,Kesari,blue,y,,,,,0,10,10,10,,,,,,,,,446.84048229998734,447.33901939999487,447.3555827999953,448.33668779999425,448.33668779999425,449.83237689999805,449.8493382000015,452.84084049999365,None,0,,829678,001,2022-10-09_14h33.30.867,Stroop Task-Lab in Psychology (Group Project),2022.2.4,60.12607234953491,
Kesari,orange,Orange,blue,b,,,,,0,11,11,11,,,,,,,,,452.84084049999365,453.339358799989,453.3566204999952,454.33694639999885,454.33694639999885,455.83292789998814,455.849369699994,458.84148789999017,None,0,,829678,001,2022-10-09_14h33.30.867,Stroop Task-Lab in Psychology (Group Project),2022.2.4,60.12607234953491,
Yellow,red,Pila,yellow,r,,,,,0,12,12,12,,,,,,,,,458.84148789999017,459.3401102999924,459.35638969999854,460.337337399993,460.337337399993,461.8334753999952,461.8500437999901,,None,0,,829678,001,2022-10-09_14h33.30.867,Stroop Task-Lab in Psychology (Group Project),2022.2.4,60.12607234953491,
Pila,blue,Yellow,orange,o,,,,,0,13,13,13,,,,,,,,,464.84173079999164,465.34027319999586,465.3567222999991,466.33786770000006,466.33786770000006,467.83360659999016,467.8497805999941,,None,0,,829678,001,2022-10-09_14h33.30.867,Stroop Task-Lab in Psychology (Group Project),2022.2.4,60.12607234953491,
Yellow,yellow,Pila,blue,y,,,,,0,14,14,14,,,,,,,,,470.8416509999952,471.32403859999613,471.35707379999803,472.33793069999956,472.33793069999956,473.8338947999873,473.8504083000007,,None,0,,829678,001,2022-10-09_14h33.30.867,Stroop Task-Lab in Psychology (Group Project),2022.2.4,60.12607234953491,
Pila,orange,Yellow,blue,b,,,,,0,15,15,15,,,,,,,,,476.842253099996,477.3246073999908,477.35748089999834,478.33810639999865,478.33810639999865,479.8344686999917,479.85050169999886,,None,0,,829678,001,2022-10-09_14h33.30.867,Stroop Task-Lab in Psychology (Group Project),2022.2.4,60.12607234953491,
Red,red,Laal,orange,r,,,,,1,0,16,0,,,,,,,,,482.84260899999936,483.3251811999944,483.3415798999922,484.3384087999875,484.3384087999875,485.8347891999874,485.85102189998724,,None,0,,829678,001,2022-10-09_14h33.30.867,Stroop Task-Lab in Psychology (Group Project),2022.2.4,60.12607234953491,
Laal,blue,Red,yellow,y,,,,,1,1,17,1,,,,,,,,,488.8431342999975,489.3251709999895,489.3585721999989,490.3391532999958,490.3391532999958,491.8347635999962,491.8513829000003,,None,0,,829678,001,2022-10-09_14h33.30.867,Stroop Task-Lab in Psychology (Group Project),2022.2.4,60.12607234953491,
Red,orange,Laal,red,o,,,,,1,2,18,2,,,,,,,,,494.84329739998793,495.3255921999953,495.3587472999934,496.33939019999525,496.33939019999525,497.8354956999974,497.85186819999944,,None,0,,829678,001,2022-10-09_14h33.30.867,Stroop Task-Lab in Psychology (Group Project),2022.2.4,60.12607234953491,
Red,blue,Laal,yellow,b,,,,,1,3,19,3,,,,,,,,,500.84376659999543,501.32592369998747,501.3589949999878,502.33957219999866,502.33957219999866,503.83557019999716,503.8525108999893,,None,0,,829678,001,2022-10-09_14h33.30.867,Stroop Task-Lab in Psychology (Group Project),2022.2.4,60.12607234953491,
Blue,blue,Nila,red,b,,,,,1,4,20,4,,,,,,,,,506.84401219998836,507.3261315999989,507.3592869999993,508.3401362000004,508.3401362000004,509.83603979999316,509.8528077999945,,None,0,,829678,001,2022-10-09_14h33.30.867,Stroop Task-Lab in Psychology (Group Project),2022.2.4,60.12607234953491,
Nila,red,Blue,orange,o,,,,,1,5,21,5,,,,,,,,,512.84400859999,513.3258539999952,513.3591243999981,514.3399552999908,514.3399552999908,515.8360463999998,515.8525007999997,,o,1,2.11548269999912,829678,001,2022-10-09_14h33.30.867,Stroop Task-Lab in Psychology (Group Project),2022.2.4,60.12607234953491,
Blue,red,Nila,yellow,r,,,,,1,6,22,6,,,,,,,,,517.9806948999903,518.4792075000005,518.4957515999995,519.4765004999936,519.4765004999936,520.9723437999928,520.9891121999972,523.9808006999956,None,0,,829678,001,2022-10-09_14h33.30.867,Stroop Task-Lab in Psychology (Group Project),2022.2.4,60.12607234953491,
Nila,orange,Blue,yellow,y,,,,,1,7,23,7,,,,,,,,,523.9808006999956,524.4795728999889,524.4960928999935,525.4767730999883,525.4767730999883,526.972589699988,526.9890786999895,529.9808730999939,None,0,,829678,001,2022-10-09_14h33.30.867,Stroop Task-Lab in Psychology (Group Project),2022.2.4,60.12607234953491,
Orange,red,kesari,red,r,,,,,1,8,24,8,,,,,,,,,529.9808730999939,530.4798481999896,530.4963698999927,531.4769913999917,531.4769913999917,532.9729546999879,532.9897018999909,535.9813358999963,None,0,,829678,001,2022-10-09_14h33.30.867,Stroop Task-Lab in Psychology (Group Project),2022.2.4,60.12607234953491,
Kesari,blue,Orange,orange,o,,,,,1,9,25,9,,,,,,,,,535.9813358999963,536.4801432999957,536.496790899997,537.477687599996,537.477687599996,538.973470500001,538.9898404999985,541.9819947999931,None,0,,829678,001,2022-10-09_14h33.30.867,Stroop Task-Lab in Psychology (Group Project),2022.2.4,60.12607234953491,
Orange,yellow,Kesari,blue,y,,,,,1,10,26,10,,,,,,,,,541.9819947999931,542.4804778999969,542.4972651999997,543.4781524999999,543.4781524999999,544.9737961999926,544.9905143999931,,None,0,,829678,001,2022-10-09_14h33.30.867,Stroop Task-Lab in Psychology (Group Project),2022.2.4,60.12607234953491,
Kesari,orange,Orange,blue,b,,,,,1,11,27,11,,,,,,,,,547.9821264999919,548.480797199998,548.4975335999916,549.4780708999897,549.4780708999897,550.9740139999922,550.9910600000003,,b,1,0.41304679999302607,829678,001,2022-10-09_14h33.30.867,Stroop Task-Lab in Psychology (Group Project),2022.2.4,60.12607234953491,
Yellow,red,Pila,yellow,r,,,,,1,12,28,12,,,,,,,,,551.4086465,551.9049560999993,551.9215063999873,552.9021833000006,552.9021833000006,554.3982854999922,554.4148470999935,557.4063979999919,None,0,,829678,001,2022-10-09_14h33.30.867,Stroop Task-Lab in Psychology (Group Project),2022.2.4,60.12607234953491,
Pila,blue,Yellow,orange,o,,,,,1,13,29,13,,,,,,,,,557.4063979999919,557.9053698999924,557.9053698999924,558.902566299992,558.902566299992,560.3986141999922,560.4150915999926,,o,1,0.237659899998107,829678,001,2022-10-09_14h33.30.867,Stroop Task-Lab in Psychology (Group Project),2022.2.4,60.12607234953491,
Yellow,yellow,Pila,blue,y,,,,,1,14,30,14,,,,,,,,,560.6657968999934,561.1627511999977,561.1798235999886,562.1601778999902,562.1601778999902,563.6562637999887,563.6729180999973,566.6647890999884,None,0,,829678,001,2022-10-09_14h33.30.867,Stroop Task-Lab in Psychology (Group Project),2022.2.4,60.12607234953491,
Pila,orange,Yellow,blue,b,,,,,1,15,31,15,,,,,,,,,566.6647890999884,567.1634147000004,567.1800178999983,568.1606237999949,568.1606237999949,569.656803299993,569.6735171999899,572.6650029000011,None,0,,829678,001,2022-10-09_14h33.30.867,Stroop Task-Lab in Psychology (Group Project),2022.2.4,60.12607234953491,
Red,red,Laal,orange,r,,,,,2,0,32,0,,,,,,,,,572.6650029000011,573.1639284999983,573.1639284999983,574.161042599997,574.161042599997,575.657143199991,575.6735908999981,578.6651920000004,None,0,,829678,001,2022-10-09_14h33.30.867,Stroop Task-Lab in Psychology (Group Project),2022.2.4,60.12607234953491,
Laal,blue,Red,yellow,y,,,,,2,1,33,1,,,,,,,,,578.6651920000004,579.1640882999927,579.180801999988,580.1611792999902,580.1611792999902,581.6574681999919,581.6738638999959,584.6658038999885,None,0,,829678,001,2022-10-09_14h33.30.867,Stroop Task-Lab in Psychology (Group Project),2022.2.4,60.12607234953491,
Red,orange,Laal,red,o,,,,,2,2,34,2,,,,,,,,,584.6658038999885,585.1647339999909,585.1812158999965,586.1618977999897,586.1618977999897,587.6578164999955,587.674197100001,,None,0,,829678,001,2022-10-09_14h33.30.867,Stroop Task-Lab in Psychology (Group Project),2022.2.4,60.12607234953491,
Red,blue,Laal,yellow,b,,,,,2,3,35,3,,,,,,,,,590.6661252999911,591.1480174999888,591.1818780999893,592.1620903000003,592.1620903000003,593.6579494999896,593.6746327000001,,None,0,,829678,001,2022-10-09_14h33.30.867,Stroop Task-Lab in Psychology (Group Project),2022.2.4,60.12607234953491,
Blue,blue,Nila,red,b,,,,,2,4,36,4,,,,,,,,,596.6658573999885,597.1651966999925,597.1651966999925,598.162067199999,598.162067199999,599.6586130999931,599.6753081999923,,None,0,,829678,001,2022-10-09_14h33.30.867,Stroop Task-Lab in Psychology (Group Project),2022.2.4,60.12607234953491,
Nila,red,Blue,orange,o,,,,,2,5,37,5,,,,,,,,,602.6669066999893,603.1492456999986,603.1824006999959,604.1629337999912,604.1629337999912,605.6587375999952,605.6755436999956,,None,0,,829678,001,2022-10-09_14h33.30.867,Stroop Task-Lab in Psychology (Group Project),2022.2.4,60.12607234953491,
Blue,red,Nila,yellow,r,,,,,2,6,38,6,,,,,,,,,608.6675007999875,609.1492216999904,609.1828518999973,610.1630485999922,610.1630485999922,611.6590643999953,611.6759566999972,,None,0,,829678,001,2022-10-09_14h33.30.867,Stroop Task-Lab in Psychology (Group Project),2022.2.4,60.12607234953491,
Nila,orange,Blue,yellow,y,,,,,2,7,39,7,,,,,,,,,614.6679855999973,615.1498312999902,615.1829408999911,616.1636927999934,616.1636927999934,617.659656399992,617.6760786999948,,None,0,,829678,001,2022-10-09_14h33.30.867,Stroop Task-Lab in Psychology (Group Project),2022.2.4,60.12607234953491,
Orange,red,kesari,red,r,,,,,2,8,40,8,,,,,,,,,620.6677455999888,621.1500727999955,621.1835107999941,622.164143499991,622.164143499991,623.6597683,623.6764720999927,,None,0,,829678,001,2022-10-09_14h33.30.867,Stroop Task-Lab in Psychology (Group Project),2022.2.4,60.12607234953491,
Kesari,blue,Orange,orange,o,,,,,2,9,41,9,,,,,,,,,626.6686833999993,627.1503072999913,627.183567,628.1640378000011,628.1640378000011,629.6600283000007,629.676750300001,,None,0,,829678,001,2022-10-09_14h33.30.867,Stroop Task-Lab in Psychology (Group Project),2022.2.4,60.12607234953491,
Orange,yellow,Kesari,blue,y,,,,,2,10,42,10,,,,,,,,,632.6694955999992,633.1504518000002,633.1838056999986,634.1644092999923,634.1644092999923,635.6603493000002,635.6768808999914,,None,0,,829678,001,2022-10-09_14h33.30.867,Stroop Task-Lab in Psychology (Group Project),2022.2.4,60.12607234953491,
Kesari,orange,Orange,blue,b,,,,,2,11,43,11,,,,,,,,,638.6709229999979,639.150908999989,639.18418869999,640.1648661999934,640.1648661999934,641.6608284999966,641.6776167999924,,None,0,,829678,001,2022-10-09_14h33.30.867,Stroop Task-Lab in Psychology (Group Project),2022.2.4,60.12607234953491,
Yellow,red,Pila,yellow,r,,,,,2,12,44,12,,,,,,,,,644.6693899999955,645.1510377999948,645.184562800001,646.1650493999914,646.1650493999914,647.6608564999915,647.6774450999947,,None,0,,829678,001,2022-10-09_14h33.30.867,Stroop Task-Lab in Psychology (Group Project),2022.2.4,60.12607234953491,
Pila,blue,Yellow,orange,o,,,,,2,13,45,13,,,,,,,,,650.6692387999938,651.1515987999883,651.1848163999966,652.1490153999912,652.1490153999912,653.6613609999913,653.6613609999913,,o,1,0.5205881000001682,829678,001,2022-10-09_14h33.30.867,Stroop Task-Lab in Psychology (Group Project),2022.2.4,60.12607234953491,
Yellow,yellow,Pila,blue,y,,,,,2,14,46,14,,,,,,,,,654.2101338999928,654.7083741999959,654.7250728999934,655.7062595999887,655.7062595999887,657.2018982000009,657.2186318999884,660.210608399997,None,0,,829678,001,2022-10-09_14h33.30.867,Stroop Task-Lab in Psychology (Group Project),2022.2.4,60.12607234953491,
Pila,orange,Yellow,blue,b,,,,,2,15,47,15,,,,,,,,,660.210608399997,660.7090195999917,660.7256928999996,661.705956699996,661.705956699996,663.2020741000015,663.2183013999893,666.2106764999917,None,0,,829678,001,2022-10-09_14h33.30.867,Stroop Task-Lab in Psychology (Group Project),2022.2.4,60.12607234953491,
Red,red,Laal,orange,r,,,,,3,0,48,0,,,,,,,,,666.2106764999917,666.7090266999876,666.7257300999918,667.7063120999956,667.7063120999956,669.2025979999889,669.2192935999919,672.2113196999999,None,0,,829678,001,2022-10-09_14h33.30.867,Stroop Task-Lab in Psychology (Group Project),2022.2.4,60.12607234953491,
Laal,blue,Red,yellow,y,,,,,3,1,49,1,,,,,,,,,672.2113196999999,672.7096897999872,672.7261637999909,673.7068485999916,673.7068485999916,675.2030562,675.2199335999903,678.2117132999992,None,0,,829678,001,2022-10-09_14h33.30.867,Stroop Task-Lab in Psychology (Group Project),2022.2.4,60.12607234953491,
Red,orange,Laal,red,o,,,,,3,2,50,2,,,,,,,,,678.2117132999992,678.7100190999918,678.7265982999961,679.707250499996,679.707250499996,681.2036154999951,681.2198077999929,684.2117004999891,None,0,,829678,001,2022-10-09_14h33.30.867,Stroop Task-Lab in Psychology (Group Project),2022.2.4,60.12607234953491,
Red,blue,Laal,yellow,b,,,,,3,3,51,3,,,,,,,,,684.2117004999891,684.7108058000013,684.7272252999974,685.7074271999882,685.7074271999882,687.2037260999932,687.2206643999962,,None,0,,829678,001,2022-10-09_14h33.30.867,Stroop Task-Lab in Psychology (Group Project),2022.2.4,60.12607234953491,
Blue,blue,Nila,red,b,,,,,3,4,52,4,,,,,,,,,690.2121011999989,690.7108506999939,690.7274503999943,691.7083491999947,691.7083491999947,693.2044053999998,693.2207520999946,,None,0,,829678,001,2022-10-09_14h33.30.867,Stroop Task-Lab in Psychology (Group Project),2022.2.4,60.12607234953491,
Nila,red,Blue,orange,o,,,,,3,5,53,5,,,,,,,,,696.2124171999894,696.694251199995,696.7274907999963,697.7088251999958,697.7088251999958,699.2045386999962,699.2206802000001,,None,0,,829678,001,2022-10-09_14h33.30.867,Stroop Task-Lab in Psychology (Group Project),2022.2.4,60.12607234953491,
Blue,red,Nila,yellow,r,,,,,3,6,54,6,,,,,,,,,702.2124168000009,702.694773700001,702.7281473999901,703.7084644999995,703.7084644999995,705.2047476000007,705.2212365000014,,o,0,1.3007421000074828,829678,001,2022-10-09_14h33.30.867,Stroop Task-Lab in Psychology (Group Project),2022.2.4,60.12607234953491,
Nila,orange,Blue,yellow,y,,,,,3,7,55,7,,,,,,,,,706.5346806999878,707.0331517000013,707.0495315000007,708.0305432999885,708.0305432999885,709.5260526999919,709.542601299996,712.5354801999929,None,0,,829678,001,2022-10-09_14h33.30.867,Stroop Task-Lab in Psychology (Group Project),2022.2.4,60.12607234953491,
Orange,red,kesari,red,r,,,,,3,8,56,8,,,,,,,,,712.5354801999929,713.0335748999933,713.0501948999881,714.0307295999955,714.0307295999955,715.5265428999992,715.5431701999914,718.5348469999881,None,0,,829678,001,2022-10-09_14h33.30.867,Stroop Task-Lab in Psychology (Group Project),2022.2.4,60.12607234953491,
Kesari,blue,Orange,orange,o,,,,,3,9,57,9,,,,,,,,,718.5348469999881,719.0337940999889,719.0337940999889,720.031132499993,720.031132499993,721.5267550999997,721.543700899987,724.5357118999964,None,0,,829678,001,2022-10-09_14h33.30.867,Stroop Task-Lab in Psychology (Group Project),2022.2.4,60.12607234953491,
Orange,yellow,Kesari,blue,y,,,,,3,10,58,10,,,,,,,,,724.5357118999964,725.0341178999952,725.0506954000011,726.0316201999958,726.0316201999958,727.5270201999956,727.5437811000011,730.5358876999962,None,0,,829678,001,2022-10-09_14h33.30.867,Stroop Task-Lab in Psychology (Group Project),2022.2.4,60.12607234953491,
Kesari,orange,Orange,blue,b,,,,,3,11,59,11,,,,,,,,,730.5358876999962,731.0347936999897,731.051043799991,732.0319693999918,732.0319693999918,733.5277867999976,733.5442832999979,,None,0,,829678,001,2022-10-09_14h33.30.867,Stroop Task-Lab in Psychology (Group Project),2022.2.4,60.12607234953491,
Yellow,red,Pila,yellow,r,,,,,3,12,60,12,,,,,,,,,736.5361634000001,737.0350513000012,737.0350513000012,738.0322460999887,738.0322460999887,739.5280612999923,739.5447249999997,,None,0,,829678,001,2022-10-09_14h33.30.867,Stroop Task-Lab in Psychology (Group Project),2022.2.4,60.12607234953491,
Pila,blue,Yellow,orange,o,,,,,3,13,61,13,,,,,,,,,742.5366722999897,743.0185142999981,743.0515842999885,744.0325630000007,744.0325630000007,745.5283813999995,745.54497979999,,None,0,,829678,001,2022-10-09_14h33.30.867,Stroop Task-Lab in Psychology (Group Project),2022.2.4,60.12607234953491,
Yellow,yellow,Pila,blue,y,,,,,3,14,62,14,,,,,,,,,748.5370765999978,749.0187636999908,749.0518430999946,750.032687599989,750.032687599989,751.5288206999976,751.5455170999921,,None,0,,829678,001,2022-10-09_14h33.30.867,Stroop Task-Lab in Psychology (Group Project),2022.2.4,60.12607234953491,
Pila,orange,Yellow,blue,b,,,,,3,15,63,15,,,,,,,,,754.5370847000013,755.0189351000008,755.0521856999985,756.0329861999926,756.0329861999926,757.5288109999965,757.5453873999941,,None,0,,829678,001,2022-10-09_14h33.30.867,Stroop Task-Lab in Psychology (Group Project),2022.2.4,60.12607234953491,
Red,blue,Laal,yellow,b,,,,,,,,,0,0,0,3,,,,,760.5498462999967,761.0195940999984,761.0529502999998,762.0337381999998,762.0337381999998,763.5295002999919,763.5459832999913,,None,0,,829678,001,2022-10-09_14h33.30.867,Stroop Task-Lab in Psychology (Group Project),2022.2.4,60.12607234953491,
Orange,red,kesari,red,r,,,,,,,,,0,1,1,8,,,,,766.5376516999968,767.0197675999952,767.0528257999977,768.0338561999961,768.0338561999961,769.5296291999985,769.5466373999952,,None,0,,829678,001,2022-10-09_14h33.30.867,Stroop Task-Lab in Psychology (Group Project),2022.2.4,60.12607234953491,
Nila,orange,Blue,yellow,y,,,,,,,,,0,2,2,7,,,,,772.5382226999936,773.0205019999994,773.0534723999881,774.0342883999983,774.0342883999983,775.5304861999903,775.5469019999873,,None,0,,829678,001,2022-10-09_14h33.30.867,Stroop Task-Lab in Psychology (Group Project),2022.2.4,60.12607234953491,
Yellow,yellow,Pila,blue,y,,,,,,,,,0,3,3,14,,,,,778.5383688000002,779.0206570999871,779.0540182999976,780.0347220999975,780.0347220999975,781.5300659999921,781.546981499996,,None,0,,829678,001,2022-10-09_14h33.30.867,Stroop Task-Lab in Psychology (Group Project),2022.2.4,60.12607234953491,
Kesari,blue,Orange,orange,o,,,,,,,,,0,4,4,9,,,,,784.5390330999944,785.0212041999912,785.0542874999956,786.034825499999,786.034825499999,787.5310513000004,787.5479086999985,,None,0,,829678,001,2022-10-09_14h33.30.867,Stroop Task-Lab in Psychology (Group Project),2022.2.4,60.12607234953491,
Orange,red,kesari,red,r,,,,,,,,,0,5,5,8,,,,,790.5393107999989,791.0212062999926,791.054922700001,792.0186643999914,792.0186643999914,793.531141200001,793.531141200001,,None,0,,829678,001,2022-10-09_14h33.30.867,Stroop Task-Lab in Psychology (Group Project),2022.2.4,60.12607234953491,
Yellow,red,Pila,yellow,r,,,,,,,,,0,6,6,12,,,,,796.5399495999882,797.0219726999931,797.0549094999878,798.0189963999874,798.0189963999874,799.531659100001,799.531659100001,,r,1,0.7830936000100337,829678,001,2022-10-09_14h33.30.867,Stroop Task-Lab in Psychology (Group Project),2022.2.4,60.12607234953491,
Blue,red,Nila,yellow,r,,,,,,,,,0,7,7,6,,,,,800.3460520999943,800.8450341999996,800.8613558999932,801.8418903999991,801.8418903999991,803.3378824999963,803.3545595999894,806.346246199988,None,0,,829678,001,2022-10-09_14h33.30.867,Stroop Task-Lab in Psychology (Group Project),2022.2.4,60.12607234953491,
Yellow,yellow,Pila,blue,y,,,,,,,,,0,8,8,14,,,,,806.346246199988,806.8453891999961,806.8615216999897,807.8422942999896,807.8422942999896,809.3385165999935,809.3547563999891,812.3467303999932,None,0,,829678,001,2022-10-09_14h33.30.867,Stroop Task-Lab in Psychology (Group Project),2022.2.4,60.12607234953491,
Blue,red,Nila,yellow,r,,,,,,,,,0,9,9,6,,,,,812.3467303999932,812.8453870999947,812.8622728999908,813.8427546999883,813.8427546999883,815.3388731999876,815.3550500999991,818.3467410999874,None,0,,829678,001,2022-10-09_14h33.30.867,Stroop Task-Lab in Psychology (Group Project),2022.2.4,60.12607234953491,
Orange,yellow,Kesari,blue,y,,,,,,,,,0,10,10,10,,,,,818.3467410999874,818.8458010999893,818.8458010999893,819.8433798999904,819.8433798999904,821.3390423999954,821.3557403000013,824.3472865999938,None,0,,829678,001,2022-10-09_14h33.30.867,Stroop Task-Lab in Psychology (Group Project),2022.2.4,60.12607234953491,
Red,blue,Laal,yellow,b,,,,,,,,,0,11,11,3,,,,,824.3472865999938,824.8458794999897,824.8458794999897,825.8433335000009,825.8433335000009,827.3392639999947,827.3556972999941,830.3485609999916,None,0,,829678,001,2022-10-09_14h33.30.867,Stroop Task-Lab in Psychology (Group Project),2022.2.4,60.12607234953491,
Kesari,orange,Orange,blue,b,,,,,,,,,0,12,12,11,,,,,830.3485609999916,830.8467851999885,830.8634278999962,831.8438219999953,831.8438219999953,833.339662399987,833.3562534999946,836.3481119999924,None,0,,829678,001,2022-10-09_14h33.30.867,Stroop Task-Lab in Psychology (Group Project),2022.2.4,60.12607234953491,
Orange,red,kesari,red,r,,,,,,,,,0,13,13,8,,,,,836.3481119999924,836.8470934999932,836.8637587999983,837.8439923999977,837.8439923999977,839.3400578000001,839.3566707999998,,None,0,,829678,001,2022-10-09_14h33.30.867,Stroop Task-Lab in Psychology (Group Project),2022.2.4,60.12607234953491,
Red,orange,Laal,red,o,,,,,,,,,0,14,14,2,,,,,842.3485932999902,842.8471056999988,842.8637526999955,843.8444019999879,843.8444019999879,845.3404994000011,845.3569208999979,,None,0,,829678,001,2022-10-09_14h33.30.867,Stroop Task-Lab in Psychology (Group Project),2022.2.4,60.12607234953491,
Yellow,yellow,Pila,blue,y,,,,,,,,,0,15,15,14,,,,,848.3488305999927,848.8474857999972,848.8642142999888,849.8446912999934,849.8446912999934,851.3405617999961,851.3575767000002,,None,0,,829678,001,2022-10-09_14h33.30.867,Stroop Task-Lab in Psychology (Group Project),2022.2.4,60.12607234953491,
Yellow,red,Pila,yellow,r,,,,,,,,,1,0,16,12,,,,,854.3492472999933,854.8311300999922,854.8644768999948,855.8453700999962,855.8453700999962,857.3413184999954,857.3577195999969,,None,0,,829678,001,2022-10-09_14h33.30.867,Stroop Task-Lab in Psychology (Group Project),2022.2.4,60.12607234953491,
Nila,orange,Blue,yellow,y,,,,,,,,,1,1,17,7,,,,,860.349587299992,860.8315961999906,860.8647128999874,861.8453187999985,861.8453187999985,863.3414668999903,863.3581248999981,,None,0,,829678,001,2022-10-09_14h33.30.867,Stroop Task-Lab in Psychology (Group Project),2022.2.4,60.12607234953491,
Red,red,Laal,orange,r,,,,,,,,,1,2,18,0,,,,,866.3498790999874,866.8318744999997,866.8650067999988,867.8459736999939,867.8459736999939,869.3418268999958,869.3583807999967,,None,0,,829678,001,2022-10-09_14h33.30.867,Stroop Task-Lab in Psychology (Group Project),2022.2.4,60.12607234953491,
Laal,blue,Red,yellow,y,,,,,,,,,1,3,19,1,,,,,872.3503660999995,872.8322330999945,872.8654779999924,873.8465024999896,873.8465024999896,875.3420213999925,875.3586121999979,,None,0,,829678,001,2022-10-09_14h33.30.867,Stroop Task-Lab in Psychology (Group Project),2022.2.4,60.12607234953491,
Blue,blue,Nila,red,b,,,,,,,,,1,4,20,4,,,,,878.3509018999903,878.8325995999912,878.8657376999909,879.8466775999987,879.8466775999987,881.3422924999904,881.359329599989,,None,0,,829678,001,2022-10-09_14h33.30.867,Stroop Task-Lab in Psychology (Group Project),2022.2.4,60.12607234953491,
Blue,red,Nila,yellow,r,,,,,,,,,1,5,21,6,,,,,884.3507000999962,884.8333649999986,884.8495844999998,885.8468433999951,885.8468433999951,887.3428628999973,887.3592566000007,,None,0,,829678,001,2022-10-09_14h33.30.867,Stroop Task-Lab in Psychology (Group Project),2022.2.4,60.12607234953491,
Kesari,blue,Orange,orange,o,,,,,,,,,1,6,22,9,,,,,890.3518935999891,890.8332979999977,890.8666282999911,891.8471292999893,891.8471292999893,893.343254499996,893.3597331999918,,None,0,,829678,001,2022-10-09_14h33.30.867,Stroop Task-Lab in Psychology (Group Project),2022.2.4,60.12607234953491,
Red,orange,Laal,red,o,,,,,,,,,1,7,23,2,,,,,896.3514825999882,896.8339852999925,896.8504199999879,897.8308607999934,897.8308607999934,899.3434698999918,899.3434698999918,,None,0,,829678,001,2022-10-09_14h33.30.867,Stroop Task-Lab in Psychology (Group Project),2022.2.4,60.12607234953491,
Kesari,orange,Orange,blue,b,,,,,,,,,1,8,24,11,,,,,902.3520583999925,902.8342858999968,902.8671585999982,903.8315473999974,903.8315473999974,905.3438811999949,905.3438811999949,,None,0,,829678,001,2022-10-09_14h33.30.867,Stroop Task-Lab in Psychology (Group Project),2022.2.4,60.12607234953491,
Kesari,blue,Orange,orange,o,,,,,,,,,1,9,25,9,,,,,908.3526916999981,908.8344639999996,908.8680120999925,909.8315250000014,909.8315250000014,911.3442342999915,911.3442342999915,,None,0,,829678,001,2022-10-09_14h33.30.867,Stroop Task-Lab in Psychology (Group Project),2022.2.4,60.12607234953491,
Red,red,Laal,orange,r,,,,,,,,,1,10,26,0,,,,,914.3525408999994,914.8349143999949,914.8679335999914,915.8322678999975,915.8322678999975,917.3447787999903,917.3447787999903,,None,0,,829678,001,2022-10-09_14h33.30.867,Stroop Task-Lab in Psychology (Group Project),2022.2.4,60.12607234953491,
Nila,red,Blue,orange,o,,,,,,,,,1,11,27,5,,,,,920.3529970999953,920.8349382000015,920.8683601999946,921.8326277000015,921.8326277000015,923.3452088999911,923.3452088999911,,None,0,,829678,001,2022-10-09_14h33.30.867,Stroop Task-Lab in Psychology (Group Project),2022.2.4,60.12607234953491,
Orange,yellow,Kesari,blue,y,,,,,,,,,1,12,28,10,,,,,926.3539557999902,926.8356845999951,926.8687568999885,927.8328283999872,927.8328283999872,929.3456351999921,929.3456351999921,,None,0,,829678,001,2022-10-09_14h33.30.867,Stroop Task-Lab in Psychology (Group Project),2022.2.4,60.12607234953491,
Nila,red,Blue,orange,o,,,,,,,,,1,13,29,5,,,,,932.353521099998,932.8360781999945,932.8526864000014,933.833212499987,933.833212499987,935.3454963999975,935.3454963999975,,None,0,,829678,001,2022-10-09_14h33.30.867,Stroop Task-Lab in Psychology (Group Project),2022.2.4,60.12607234953491,
Pila,blue,Yellow,orange,o,,,,,,,,,1,14,30,13,,,,,938.3539776999969,938.8361619999923,938.8694209999958,939.8332359999913,939.8332359999913,941.3460015999881,941.3460015999881,,None,0,,829678,001,2022-10-09_14h33.30.867,Stroop Task-Lab in Psychology (Group Project),2022.2.4,60.12607234953491,
Blue,blue,Nila,red,b,,,,,,,,,1,15,31,4,,,,,944.3543529999879,944.836658699991,944.8697917999962,945.83345559999,945.83345559999,947.3464754000015,947.3464754000015,,None,0,,829678,001,2022-10-09_14h33.30.867,Stroop Task-Lab in Psychology (Group Project),2022.2.4,60.12607234953491,
,,,,,,,,,,,,,,,,,,,,,950.3547096999973,950.8369164999895,950.8699860999914,951.833799199987,951.833799199987,953.3469330999942,953.3469330999942,,,,,,,,,,,
