word1,color1,word2,color2,corr_resp,trials_1.thisRepN,trials_1.thisTrialN,trials_1.thisN,trials_1.thisIndex,trials_2.thisRepN,trials_2.thisTrialN,trials_2.thisN,trials_2.thisIndex,trials_3.thisRepN,trials_3.thisTrialN,trials_3.thisN,trials_3.thisIndex,trials_4.thisRepN,trials_4.thisTrialN,trials_4.thisN,trials_4.thisIndex,text_2.started,text_2.stopped,text_4.started,fixation.started,sti.started,fixation.stopped,sti.stopped,dist.started,dist.stopped,key_resp.started,key_resp.keys,key_resp.corr,key_resp.rt,text_3.started,text_3.stopped,participant,session,date,expName,psychopyVersion,frameRate,
Orange,red,kesari,red,r,0,0,0,8,,,,,,,,,,,,,10.072287200018764,11.072332600015216,11.072332600015216,16.119486499985214,16.570416999980807,16.62060929997824,17.570419800002128,17.570419800002128,19.069920399982948,19.569877600006294,r,1,0.6720192999928258,,,783964,001,2022-10-09_13h21.29.713,Stroop Task-Lab in Psychology (Group Project),2022.2.4,59.842506490437756,
Pila,orange,Yellow,blue,b,0,1,1,15,,,,,,,,,,,,,,,,20.289405199990142,20.769108499982394,20.80270499998005,21.76937190000899,21.76937190000899,23.268978299980517,23.76886359998025,b,1,0.22745850001228973,,,783964,001,2022-10-09_13h21.29.713,Stroop Task-Lab in Psychology (Group Project),2022.2.4,59.842506490437756,
Pila,orange,Yellow,blue,b,0,2,2,15,,,,,,,,,,,,,,,,24.01843589998316,24.51867369998945,24.51867369998945,25.518632900028024,25.518632900028024,27.017920600017533,27.51809409999987,b,1,0.036954800016246736,,,783964,001,2022-10-09_13h21.29.713,Stroop Task-Lab in Psychology (Group Project),2022.2.4,59.842506490437756,
Pila,blue,Yellow,orange,o,0,3,3,13,,,,,,,,,,,,,,,,27.584695799974725,28.083995900000446,28.083995900000446,29.084279100003187,29.084279100003187,30.583872299990617,31.083777900028508,o,1,0.5984404999762774,,,783964,001,2022-10-09_13h21.29.713,Stroop Task-Lab in Psychology (Group Project),2022.2.4,59.842506490437756,
Yellow,yellow,Pila,blue,y,0,4,4,14,,,,,,,,,,,,,,,,31.701536900014617,32.19989320001332,32.216373200004455,33.19961319997674,33.19961319997674,34.69955189997563,35.19938700000057,y,1,0.13497120002284646,,,783964,001,2022-10-09_13h21.29.713,Stroop Task-Lab in Psychology (Group Project),2022.2.4,59.842506490437756,
Orange,red,kesari,red,r,0,5,5,8,,,,,,,,,,,,,,,,35.365626299986616,35.865952800028026,35.865952800028026,36.8656648999895,36.8656648999895,38.365161399997305,38.865196499973536,r,1,0.15963980002561584,,,783964,001,2022-10-09_13h21.29.713,Stroop Task-Lab in Psychology (Group Project),2022.2.4,59.842506490437756,
Kesari,blue,Orange,orange,o,0,6,6,9,,,,,,,,,,,,,,,,39.0521362000145,39.54804279998643,39.56471399997827,40.54775760002667,40.54775760002667,42.047982799995225,42.547723399999086,o,1,2.2951190000167117,,,783964,001,2022-10-09_13h21.29.713,Stroop Task-Lab in Psychology (Group Project),2022.2.4,59.842506490437756,
Red,red,Laal,orange,r,0,7,7,0,,,,,,,,,,,,,,,,44.866304700030014,45.36356730002444,45.380409999983385,46.36331909999717,46.36331909999717,47.8625844999915,48.363023500016425,r,1,0.023220600036438555,,,783964,001,2022-10-09_13h21.29.713,Stroop Task-Lab in Psychology (Group Project),2022.2.4,59.842506490437756,
Blue,blue,Nila,red,b,0,8,8,4,,,,,,,,,,,,,,,,48.43043000000762,48.91239210002823,48.945771600003354,49.91256249998696,49.91256249998696,51.41208869998809,51.91207850002684,b,1,0.7282356999930926,,,783964,001,2022-10-09_13h21.29.713,Stroop Task-Lab in Psychology (Group Project),2022.2.4,59.842506490437756,
Red,blue,Laal,yellow,b,0,9,9,3,,,,,,,,,,,,,,,,52.672626000014134,53.16176530002849,53.17826329998206,54.16124560002936,54.16124560002936,55.66134300001431,56.160969600023236,b,1,0.23904890002449974,,,783964,001,2022-10-09_13h21.29.713,Stroop Task-Lab in Psychology (Group Project),2022.2.4,59.842506490437756,
Nila,orange,Blue,yellow,y,0,10,10,7,,,,,,,,,,,,,,,,56.440055300015956,56.92713790002745,56.943822200002614,57.92743340000743,57.92743340000743,59.42661030002637,59.92669819999719,y,1,0.04820800002198666,,,783964,001,2022-10-09_13h21.29.713,Stroop Task-Lab in Psychology (Group Project),2022.2.4,59.842506490437756,
Kesari,orange,Orange,blue,b,0,11,11,11,,,,,,,,,,,,,,,,60.00481920002494,60.49298879998969,60.50952469999902,61.492612799978815,61.492612799978815,62.99228760000551,63.49201059999177,b,1,0.09951319999527186,,,783964,001,2022-10-09_13h21.29.713,Stroop Task-Lab in Psychology (Group Project),2022.2.4,59.842506490437756,
Kesari,blue,Orange,orange,o,0,12,12,9,,,,,,,,,,,,,,,,63.608889600029215,64.10865489998832,64.10865489998832,65.10852539999178,65.10852539999178,66.60807160002878,67.1081978000002,o,1,0.059814900043420494,,,783964,001,2022-10-09_13h21.29.713,Stroop Task-Lab in Psychology (Group Project),2022.2.4,59.842506490437756,
Blue,blue,Nila,red,b,0,13,13,4,,,,,,,,,,,,,,,,67.19678870000644,67.69114900002023,67.7079315999872,68.6909183000098,68.6909183000098,70.19076999998651,70.69066209997982,b,1,0.6289906000019982,,,783964,001,2022-10-09_13h21.29.713,Stroop Task-Lab in Psychology (Group Project),2022.2.4,59.842506490437756,
Yellow,red,Pila,yellow,r,0,14,14,12,,,,,,,,,,,,,,,,71.35208179999609,71.84027290000813,71.85675259999698,72.83983920002356,72.83983920002356,74.33986900001764,74.84008140000515,r,1,0.06268889998318627,,,783964,001,2022-10-09_13h21.29.713,Stroop Task-Lab in Psychology (Group Project),2022.2.4,59.842506490437756,
Red,red,Laal,orange,r,0,15,15,0,,,,,,,,,,,,,,,,74.92367320001358,75.42289689998142,75.42289689998142,76.42297940002754,76.42297940002754,77.92230680002831,78.42219249997288,r,1,0.037629100028425455,,,783964,001,2022-10-09_13h21.29.713,Stroop Task-Lab in Psychology (Group Project),2022.2.4,59.842506490437756,
Blue,blue,Nila,red,b,1,0,16,4,,,,,,,,,,,,,,,,78.49916940002004,78.98871659999713,79.00536980002653,79.98886230000062,79.98886230000062,81.48811069998192,81.98829579999438,b,1,0.08696109999436885,,,783964,001,2022-10-09_13h21.29.713,Stroop Task-Lab in Psychology (Group Project),2022.2.4,59.842506490437756,
Blue,red,Nila,yellow,r,1,1,17,6,,,,,,,,,,,,,,,,82.10478809999768,82.6045269999886,82.6045269999886,83.60423880000599,83.60423880000599,85.10427519999212,85.6039886000217,r,1,0.5110375999938697,,,783964,001,2022-10-09_13h21.29.713,Stroop Task-Lab in Psychology (Group Project),2022.2.4,59.842506490437756,
Nila,orange,Blue,yellow,y,1,2,18,7,,,,,,,,,,,,,,,,86.14888719998999,86.63667490001535,86.6534717999748,87.63667440001154,87.63667440001154,89.13626840000506,89.63616569997976,y,1,0.14676909998524934,,,783964,001,2022-10-09_13h21.29.713,Stroop Task-Lab in Psychology (Group Project),2022.2.4,59.842506490437756,
Blue,red,Nila,yellow,r,1,3,19,6,,,,,,,,,,,,,,,,89.8122172000003,90.30290529999183,90.31927159999032,91.3023604999762,91.3023604999762,92.80200179998064,93.30188179999823,r,1,0.049548499984666705,,,783964,001,2022-10-09_13h21.29.713,Stroop Task-Lab in Psychology (Group Project),2022.2.4,59.842506490437756,
Pila,orange,Yellow,blue,b,1,4,20,15,,,,,,,,,,,,,,,,93.37963959999615,93.86856859998079,93.88510720001068,94.86799130000873,94.86799130000873,96.36773390002782,96.86764409998432,b,1,0.1419758999836631,,,783964,001,2022-10-09_13h21.29.713,Stroop Task-Lab in Psychology (Group Project),2022.2.4,59.842506490437756,
Pila,blue,Yellow,orange,o,1,5,21,13,,,,,,,,,,,,,,,,97.03435440000612,97.53412620001473,97.53412620001473,98.53397089999635,98.53397089999635,100.03323760000058,100.53334780002479,o,1,0.05512949998956174,,,783964,001,2022-10-09_13h21.29.713,Stroop Task-Lab in Psychology (Group Project),2022.2.4,59.842506490437756,
Kesari,blue,Orange,orange,o,1,6,22,9,,,,,,,,,,,,,,,,100.62179160001688,101.11632939998526,101.13329219998559,102.11600179999368,102.11600179999368,103.61640709999483,104.1161323999986,o,1,0.15526309999404475,,,783964,001,2022-10-09_13h21.29.713,Stroop Task-Lab in Psychology (Group Project),2022.2.4,59.842506490437756,
Laal,blue,Red,yellow,y,1,7,23,1,,,,,,,,,,,,,,,,104.3081296000164,104.79914860002464,104.81571940000867,105.7990063999896,105.7990063999896,107.29825180000626,107.7982402999769,y,1,0.4441982999560423,,,783964,001,2022-10-09_13h21.29.713,Stroop Task-Lab in Psychology (Group Project),2022.2.4,59.842506490437756,
Laal,blue,Red,yellow,y,1,8,24,1,,,,,,,,,,,,,,,,108.26482199999737,108.7648307000054,108.7648307000054,109.76474860002054,109.76474860002054,111.26422130002175,111.76407099998323,y,1,0.21674740000162274,,,783964,001,2022-10-09_13h21.29.713,Stroop Task-Lab in Psychology (Group Project),2022.2.4,59.842506490437756,
Red,blue,Laal,yellow,b,1,9,25,3,,,,,,,,,,,,,,,,112.0103932999773,112.49742939998396,112.5138340999838,113.49696299998323,113.49696299998323,114.99663489998784,115.49681610002881,b,1,0.49257129995385185,,,783964,001,2022-10-09_13h21.29.713,Stroop Task-Lab in Psychology (Group Project),2022.2.4,59.842506490437756,
Laal,blue,Red,yellow,y,1,10,26,1,,,,,,,,,,,,,,,,116.02035669999896,116.51318660000106,116.52961109997705,117.51253930001985,117.51253930001985,119.01227329997346,119.51210559997708,y,1,0.35585169994737953,,,783964,001,2022-10-09_13h21.29.713,Stroop Task-Lab in Psychology (Group Project),2022.2.4,59.842506490437756,
Pila,orange,Yellow,blue,b,1,11,27,15,,,,,,,,,,,,,,,,119.89567900000839,120.39510879997397,120.39510879997397,121.39533999998821,121.39533999998821,122.89455720002297,123.3945411000168,b,1,0.2926693999907002,,,783964,001,2022-10-09_13h21.29.713,Stroop Task-Lab in Psychology (Group Project),2022.2.4,59.842506490437756,
Kesari,orange,Orange,blue,b,1,12,28,11,,,,,,,,,,,,,,,,123.72238320001634,124.21104219998233,124.22770149999997,125.21070200001122,125.21070200001122,126.71067760000005,127.20998260000488,b,1,0.04228019999573007,,,783964,001,2022-10-09_13h21.29.713,Stroop Task-Lab in Psychology (Group Project),2022.2.4,59.842506490437756,
Orange,yellow,Kesari,blue,y,1,13,29,10,,,,,,,,,,,,,,,,127.28061329998309,127.776826300018,127.79346910002641,128.77658900001552,128.77658900001552,130.27616770000895,130.7758896999876,y,1,0.5256866000127047,,,783964,001,2022-10-09_13h21.29.713,Stroop Task-Lab in Psychology (Group Project),2022.2.4,59.842506490437756,
Red,blue,Laal,yellow,b,1,14,30,3,,,,,,,,,,,,,,,,131.3402170999907,131.8258908999851,131.84260749997338,132.82601680001244,132.82601680001244,134.32544649997726,134.82500479998998,b,1,0.03166779997991398,,,783964,001,2022-10-09_13h21.29.713,Stroop Task-Lab in Psychology (Group Project),2022.2.4,59.842506490437756,
Red,red,Laal,orange,r,1,15,31,0,,,,,,,,,,,,,,,,134.87491830001818,135.37498249998316,135.37498249998316,136.37468730000546,136.37468730000546,137.87437969999155,138.37447650003014,r,1,0.4195390999666415,,,783964,001,2022-10-09_13h21.29.713,Stroop Task-Lab in Psychology (Group Project),2022.2.4,59.842506490437756,
Nila,red,Blue,orange,o,2,0,32,5,,,,,,,,,,,,,,,,138.83953529997962,139.32411410001805,139.3407162000076,140.32392100000288,140.32392100000288,141.8230056000175,142.32329179998487,o,1,0.13993160001700744,,,783964,001,2022-10-09_13h21.29.713,Stroop Task-Lab in Psychology (Group Project),2022.2.4,59.842506490437756,
Orange,red,kesari,red,r,2,1,33,8,,,,,,,,,,,,,,,,142.5032151999767,142.98969050002052,143.00619719998213,143.9897321999888,143.9897321999888,145.4894701000303,145.988569499983,r,1,0.3740360999945551,,,783964,001,2022-10-09_13h21.29.713,Stroop Task-Lab in Psychology (Group Project),2022.2.4,59.842506490437756,
Pila,blue,Yellow,orange,o,2,2,34,13,,,,,,,,,,,,,,,,146.40015609998954,146.8888848000206,146.90591199998744,147.88862510002218,147.88862510002218,149.38826059998246,149.888306799985,o,1,0.32716520002577454,,,783964,001,2022-10-09_13h21.29.713,Stroop Task-Lab in Psychology (Group Project),2022.2.4,59.842506490437756,
Kesari,orange,Orange,blue,b,2,3,35,11,,,,,,,,,,,,,,,,150.2378972999868,150.73791020002682,150.73791020002682,151.73791640001582,151.73791640001582,153.23723010002868,153.73746929998742,b,1,0.2896360000013374,,,783964,001,2022-10-09_13h21.29.713,Stroop Task-Lab in Psychology (Group Project),2022.2.4,59.842506490437756,
Yellow,yellow,Pila,blue,y,2,4,36,14,,,,,,,,,,,,,,,,154.0641921000206,154.55367220001062,154.57020830002148,155.5533825000166,155.5533825000166,157.05300910002552,157.55256789998384,y,1,0.3313364000059664,,,783964,001,2022-10-09_13h21.29.713,Stroop Task-Lab in Psychology (Group Project),2022.2.4,59.842506490437756,
Laal,blue,Red,yellow,y,2,5,37,1,,,,,,,,,,,,,,,,157.91435390000697,158.40274980000686,158.4195439000032,159.40223750000587,159.40223750000587,160.90243940002983,161.40197720000288,y,1,0.34816170000704005,,,783964,001,2022-10-09_13h21.29.713,Stroop Task-Lab in Psychology (Group Project),2022.2.4,59.842506490437756,
Red,orange,Laal,red,o,2,6,38,2,,,,,,,,,,,,,,,,161.7792938000057,162.26849370001582,162.28545979998307,163.2681820000289,163.2681820000289,164.7675255999784,165.26766650000354,o,1,0.08490969997365028,,,783964,001,2022-10-09_13h21.29.713,Stroop Task-Lab in Psychology (Group Project),2022.2.4,59.842506490437756,
Orange,red,kesari,red,r,2,7,39,8,,,,,,,,,,,,,,,,165.39739930001087,165.88394500000868,165.9009137999965,166.88382119999733,166.88382119999733,168.38357970002107,168.88344389997656,r,1,0.114201599964872,,,783964,001,2022-10-09_13h21.29.713,Stroop Task-Lab in Psychology (Group Project),2022.2.4,59.842506490437756,
Yellow,red,Pila,yellow,r,2,8,40,12,,,,,,,,,,,,,,,,169.01655439997558,169.51670719997492,169.51670719997492,170.51652710000053,170.51652710000053,172.01634390000254,172.51603080000496,r,1,0.13859609997598454,,,783964,001,2022-10-09_13h21.29.713,Stroop Task-Lab in Psychology (Group Project),2022.2.4,59.842506490437756,
Orange,yellow,Kesari,blue,y,2,9,41,10,,,,,,,,,,,,,,,,172.69304290000582,173.18202260002727,173.19900159997633,174.18209930002922,174.18209930002922,175.68162970000412,176.18161650002003,y,1,0.35687849996611476,,,783964,001,2022-10-09_13h21.29.713,Stroop Task-Lab in Psychology (Group Project),2022.2.4,59.842506490437756,
Red,orange,Laal,red,o,2,10,42,2,,,,,,,,,,,,,,,,176.57362899999134,177.06494760001078,177.08153169997968,178.06420040002558,178.06420040002558,179.56420730001992,180.06398179999087,o,1,0.2990521999890916,,,783964,001,2022-10-09_13h21.29.713,Stroop Task-Lab in Psychology (Group Project),2022.2.4,59.842506490437756,
Red,orange,Laal,red,o,2,11,43,2,,,,,,,,,,,,,,,,180.38033980003092,180.8807245999924,180.8807245999924,181.88022849999834,181.88022849999834,183.38002330000745,183.87969139998313,o,1,0.10706559999380261,,,783964,001,2022-10-09_13h21.29.713,Stroop Task-Lab in Psychology (Group Project),2022.2.4,59.842506490437756,
Kesari,blue,Orange,orange,o,2,12,44,9,,,,,,,,,,,,,,,,184.02745539997704,184.5130978000234,184.52968229999533,185.5127464000252,185.5127464000252,187.01238979998743,187.51228050002828,o,1,0.11859829997410998,,,783964,001,2022-10-09_13h21.29.713,Stroop Task-Lab in Psychology (Group Project),2022.2.4,59.842506490437756,
Blue,red,Nila,yellow,r,2,13,45,6,,,,,,,,,,,,,,,,187.67502690001857,188.16208620002726,188.1786888000206,189.16218869999284,189.16218869999284,190.66148499998963,191.16140749998158,r,1,0.008925999980419874,,,783964,001,2022-10-09_13h21.29.713,Stroop Task-Lab in Psychology (Group Project),2022.2.4,59.842506490437756,
Red,red,Laal,orange,r,2,14,46,0,,,,,,,,,,,,,,,,191.2079725000076,191.69461569999112,191.71118089999072,192.69466919999104,192.69466919999104,194.19402390002506,194.693750299979,r,1,0.29878690000623465,,,783964,001,2022-10-09_13h21.29.713,Stroop Task-Lab in Psychology (Group Project),2022.2.4,59.842506490437756,
Nila,red,Blue,orange,o,2,15,47,5,,,,,,,,,,,,,,,,195.01641819998622,195.5107115000137,195.52702219999628,196.51004309998825,196.51004309998825,198.009751399979,198.50938360003056,o,1,0.10296290001133457,,,783964,001,2022-10-09_13h21.29.713,Stroop Task-Lab in Psychology (Group Project),2022.2.4,59.842506490437756,
Blue,red,Nila,yellow,r,3,0,48,6,,,,,,,,,,,,,,,,198.64922149997437,199.14269020000938,199.15948049997678,200.1425938999746,200.1425938999746,201.64210549998097,202.14201790001243,r,1,0.21398319996660575,,,783964,001,2022-10-09_13h21.29.713,Stroop Task-Lab in Psychology (Group Project),2022.2.4,59.842506490437756,
Nila,red,Blue,orange,o,3,1,49,5,,,,,,,,,,,,,,,,202.37482630001614,202.87541019998025,202.87541019998025,203.8750613000011,203.8750613000011,205.3742536000209,205.87451559997862,o,1,0.04427939996821806,,,783964,001,2022-10-09_13h21.29.713,Stroop Task-Lab in Psychology (Group Project),2022.2.4,59.842506490437756,
Kesari,orange,Orange,blue,b,3,2,50,11,,,,,,,,,,,,,,,,205.95567769999616,206.44101419998333,206.45766339998227,207.44097400002647,207.44097400002647,208.94031869998435,209.4401913000038,b,1,0.014151000010315329,,,783964,001,2022-10-09_13h21.29.713,Stroop Task-Lab in Psychology (Group Project),2022.2.4,59.842506490437756,
Pila,blue,Yellow,orange,o,3,3,51,13,,,,,,,,,,,,,,,,209.48693549999734,209.97381210001186,209.99011880002217,210.97326910000993,210.97326910000993,212.47283300000709,212.9729992999928,o,1,0.3147175000049174,,,783964,001,2022-10-09_13h21.29.713,Stroop Task-Lab in Psychology (Group Project),2022.2.4,59.842506490437756,
Orange,yellow,Kesari,blue,y,3,4,52,10,,,,,,,,,,,,,,,,213.32033730001422,213.8056828000117,213.82216540002264,214.80563219997566,214.80563219997566,216.3050029000151,216.8052677999949,y,1,0.10906990000512451,,,783964,001,2022-10-09_13h21.29.713,Stroop Task-Lab in Psychology (Group Project),2022.2.4,59.842506490437756,
Nila,orange,Blue,yellow,y,3,5,53,7,,,,,,,,,,,,,,,,216.9525990000111,217.43853939999826,217.4552750000148,218.43798009998864,218.43798009998864,219.93748119997326,220.43786629999522,y,1,0.07750780001515523,,,783964,001,2022-10-09_13h21.29.713,Stroop Task-Lab in Psychology (Group Project),2022.2.4,59.842506490437756,
Red,blue,Laal,yellow,b,3,6,54,3,,,,,,,,,,,,,,,,220.54918119998183,221.03773019998334,221.05412360001355,222.03741940000327,222.03741940000327,223.53693740000017,224.0369116999791,b,1,0.39589670003624633,,,783964,001,2022-10-09_13h21.29.713,Stroop Task-Lab in Psychology (Group Project),2022.2.4,59.842506490437756,
Yellow,red,Pila,yellow,r,3,7,55,12,,,,,,,,,,,,,,,,224.46402710000984,224.95298950001597,224.96988390001934,225.95288779999828,225.95288779999828,227.45203929999843,227.95240790001117,r,1,0.12475040002027526,,,783964,001,2022-10-09_13h21.29.713,Stroop Task-Lab in Psychology (Group Project),2022.2.4,59.842506490437756,
Orange,yellow,Kesari,blue,y,3,8,56,10,,,,,,,,,,,,,,,,228.12215549999382,228.60208169999532,228.63554290001048,229.6015661000274,229.6015661000274,231.1015448999824,231.60148469998967,y,1,0.5646671000286005,,,783964,001,2022-10-09_13h21.29.713,Stroop Task-Lab in Psychology (Group Project),2022.2.4,59.842506490437756,
Blue,blue,Nila,red,b,3,9,57,4,,,,,,,,,,,,,,,,232.19709680002416,232.68454729998484,232.70082899997942,233.6843138000113,233.6843138000113,235.18423479999183,235.6842243000283,b,1,0.027953899989370257,,,783964,001,2022-10-09_13h21.29.713,Stroop Task-Lab in Psychology (Group Project),2022.2.4,59.842506490437756,
Yellow,yellow,Pila,blue,y,3,10,58,14,,,,,,,,,,,,,,,,235.74733029998606,236.23377470002742,236.2503194999881,237.23377619998064,237.23377619998064,238.73314979998395,239.23337899998296,y,1,0.35049600002821535,,,783964,001,2022-10-09_13h21.29.713,Stroop Task-Lab in Psychology (Group Project),2022.2.4,59.842506490437756,
Red,orange,Laal,red,o,3,11,59,2,,,,,,,,,,,,,,,,239.62782960000914,240.11640170001192,240.13276780000888,241.11609610001324,241.11609610001324,242.61546040000394,243.11531189997913,o,1,0.11992489994736388,,,783964,001,2022-10-09_13h21.29.713,Stroop Task-Lab in Psychology (Group Project),2022.2.4,59.842506490437756,
Nila,red,Blue,orange,o,3,12,60,5,,,,,,,,,,,,,,,,243.27213709999342,243.76518869999563,243.78179600002477,244.76495779998368,244.76495779998368,246.26416100002825,246.76443989999825,o,1,0.06780659995274618,,,783964,001,2022-10-09_13h21.29.713,Stroop Task-Lab in Psychology (Group Project),2022.2.4,59.842506490437756,
Yellow,yellow,Pila,blue,y,3,13,61,14,,,,,,,,,,,,,,,,246.86606680002296,247.34752060001483,247.38086370000383,248.34713770000963,248.34713770000963,249.8470405000262,250.34723770001438,y,1,0.08278739999514073,,,783964,001,2022-10-09_13h21.29.713,Stroop Task-Lab in Psychology (Group Project),2022.2.4,59.842506490437756,
Yellow,red,Pila,yellow,r,3,14,62,12,,,,,,,,,,,,,,,,250.44652890000725,250.94664229999762,250.94664229999762,251.94662180001615,251.94662180001615,253.44618369999807,253.94629089999944,r,1,0.0605335000436753,,,783964,001,2022-10-09_13h21.29.713,Stroop Task-Lab in Psychology (Group Project),2022.2.4,59.842506490437756,
Nila,orange,Blue,yellow,y,3,15,63,7,,,,,,,,,,,,,,,,254.02891970000928,254.52960120001808,254.52960120001808,255.5290283000213,255.5290283000213,257.0286492999876,257.5285978000029,y,1,0.20907919999444857,,,783964,001,2022-10-09_13h21.29.713,Stroop Task-Lab in Psychology (Group Project),2022.2.4,59.842506490437756,
Red,red,Laal,orange,r,,,,,0,0,0,0,,,,,,,,,,,,,,,,,,,,,,,,783964,001,2022-10-09_13h21.29.713,Stroop Task-Lab in Psychology (Group Project),2022.2.4,59.842506490437756,
Laal,blue,Red,yellow,y,,,,,0,1,1,1,,,,,,,,,,,,,,,,,,,,,,,,783964,001,2022-10-09_13h21.29.713,Stroop Task-Lab in Psychology (Group Project),2022.2.4,59.842506490437756,
Red,orange,Laal,red,o,,,,,0,2,2,2,,,,,,,,,,,,,,,,,,,,,,,,783964,001,2022-10-09_13h21.29.713,Stroop Task-Lab in Psychology (Group Project),2022.2.4,59.842506490437756,
Red,blue,Laal,yellow,b,,,,,0,3,3,3,,,,,,,,,,,,,,,,,,,,,,,,783964,001,2022-10-09_13h21.29.713,Stroop Task-Lab in Psychology (Group Project),2022.2.4,59.842506490437756,
Blue,blue,Nila,red,b,,,,,0,4,4,4,,,,,,,,,,,,,,,,,,,,,,,,783964,001,2022-10-09_13h21.29.713,Stroop Task-Lab in Psychology (Group Project),2022.2.4,59.842506490437756,
Nila,red,Blue,orange,o,,,,,0,5,5,5,,,,,,,,,,,,,,,,,,,,,,,,783964,001,2022-10-09_13h21.29.713,Stroop Task-Lab in Psychology (Group Project),2022.2.4,59.842506490437756,
Blue,red,Nila,yellow,r,,,,,0,6,6,6,,,,,,,,,,,,,,,,,,,,,,,,783964,001,2022-10-09_13h21.29.713,Stroop Task-Lab in Psychology (Group Project),2022.2.4,59.842506490437756,
Nila,orange,Blue,yellow,y,,,,,0,7,7,7,,,,,,,,,,,,,,,,,,,,,,,,783964,001,2022-10-09_13h21.29.713,Stroop Task-Lab in Psychology (Group Project),2022.2.4,59.842506490437756,
Orange,red,kesari,red,r,,,,,0,8,8,8,,,,,,,,,,,,,,,,,,,,,,,,783964,001,2022-10-09_13h21.29.713,Stroop Task-Lab in Psychology (Group Project),2022.2.4,59.842506490437756,
Kesari,blue,Orange,orange,o,,,,,0,9,9,9,,,,,,,,,,,,,,,,,,,,,,,,783964,001,2022-10-09_13h21.29.713,Stroop Task-Lab in Psychology (Group Project),2022.2.4,59.842506490437756,
Orange,yellow,Kesari,blue,y,,,,,0,10,10,10,,,,,,,,,,,,,,,,,,,,,,,,783964,001,2022-10-09_13h21.29.713,Stroop Task-Lab in Psychology (Group Project),2022.2.4,59.842506490437756,
Kesari,orange,Orange,blue,b,,,,,0,11,11,11,,,,,,,,,,,,,,,,,,,,,,,,783964,001,2022-10-09_13h21.29.713,Stroop Task-Lab in Psychology (Group Project),2022.2.4,59.842506490437756,
Yellow,red,Pila,yellow,r,,,,,0,12,12,12,,,,,,,,,,,,,,,,,,,,,,,,783964,001,2022-10-09_13h21.29.713,Stroop Task-Lab in Psychology (Group Project),2022.2.4,59.842506490437756,
Pila,blue,Yellow,orange,o,,,,,0,13,13,13,,,,,,,,,,,,,,,,,,,,,,,,783964,001,2022-10-09_13h21.29.713,Stroop Task-Lab in Psychology (Group Project),2022.2.4,59.842506490437756,
Yellow,yellow,Pila,blue,y,,,,,0,14,14,14,,,,,,,,,,,,,,,,,,,,,,,,783964,001,2022-10-09_13h21.29.713,Stroop Task-Lab in Psychology (Group Project),2022.2.4,59.842506490437756,
Pila,orange,Yellow,blue,b,,,,,0,15,15,15,,,,,,,,,,,,,,,,,,,,,,,,783964,001,2022-10-09_13h21.29.713,Stroop Task-Lab in Psychology (Group Project),2022.2.4,59.842506490437756,
Red,red,Laal,orange,r,,,,,1,0,16,0,,,,,,,,,,,,,,,,,,,,,,,,783964,001,2022-10-09_13h21.29.713,Stroop Task-Lab in Psychology (Group Project),2022.2.4,59.842506490437756,
Laal,blue,Red,yellow,y,,,,,1,1,17,1,,,,,,,,,,,,,,,,,,,,,,,,783964,001,2022-10-09_13h21.29.713,Stroop Task-Lab in Psychology (Group Project),2022.2.4,59.842506490437756,
Red,orange,Laal,red,o,,,,,1,2,18,2,,,,,,,,,,,,,,,,,,,,,,,,783964,001,2022-10-09_13h21.29.713,Stroop Task-Lab in Psychology (Group Project),2022.2.4,59.842506490437756,
Red,blue,Laal,yellow,b,,,,,1,3,19,3,,,,,,,,,,,,,,,,,,,,,,,,783964,001,2022-10-09_13h21.29.713,Stroop Task-Lab in Psychology (Group Project),2022.2.4,59.842506490437756,
Blue,blue,Nila,red,b,,,,,1,4,20,4,,,,,,,,,,,,,,,,,,,,,,,,783964,001,2022-10-09_13h21.29.713,Stroop Task-Lab in Psychology (Group Project),2022.2.4,59.842506490437756,
Nila,red,Blue,orange,o,,,,,1,5,21,5,,,,,,,,,,,,,,,,,,,,,,,,783964,001,2022-10-09_13h21.29.713,Stroop Task-Lab in Psychology (Group Project),2022.2.4,59.842506490437756,
Blue,red,Nila,yellow,r,,,,,1,6,22,6,,,,,,,,,,,,,,,,,,,,,,,,783964,001,2022-10-09_13h21.29.713,Stroop Task-Lab in Psychology (Group Project),2022.2.4,59.842506490437756,
Nila,orange,Blue,yellow,y,,,,,1,7,23,7,,,,,,,,,,,,,,,,,,,,,,,,783964,001,2022-10-09_13h21.29.713,Stroop Task-Lab in Psychology (Group Project),2022.2.4,59.842506490437756,
Orange,red,kesari,red,r,,,,,1,8,24,8,,,,,,,,,,,,,,,,,,,,,,,,783964,001,2022-10-09_13h21.29.713,Stroop Task-Lab in Psychology (Group Project),2022.2.4,59.842506490437756,
Kesari,blue,Orange,orange,o,,,,,1,9,25,9,,,,,,,,,,,,,,,,,,,,,,,,783964,001,2022-10-09_13h21.29.713,Stroop Task-Lab in Psychology (Group Project),2022.2.4,59.842506490437756,
Orange,yellow,Kesari,blue,y,,,,,1,10,26,10,,,,,,,,,,,,,,,,,,,,,,,,783964,001,2022-10-09_13h21.29.713,Stroop Task-Lab in Psychology (Group Project),2022.2.4,59.842506490437756,
Kesari,orange,Orange,blue,b,,,,,1,11,27,11,,,,,,,,,,,,,,,,,,,,,,,,783964,001,2022-10-09_13h21.29.713,Stroop Task-Lab in Psychology (Group Project),2022.2.4,59.842506490437756,
Yellow,red,Pila,yellow,r,,,,,1,12,28,12,,,,,,,,,,,,,,,,,,,,,,,,783964,001,2022-10-09_13h21.29.713,Stroop Task-Lab in Psychology (Group Project),2022.2.4,59.842506490437756,
Pila,blue,Yellow,orange,o,,,,,1,13,29,13,,,,,,,,,,,,,,,,,,,,,,,,783964,001,2022-10-09_13h21.29.713,Stroop Task-Lab in Psychology (Group Project),2022.2.4,59.842506490437756,
Yellow,yellow,Pila,blue,y,,,,,1,14,30,14,,,,,,,,,,,,,,,,,,,,,,,,783964,001,2022-10-09_13h21.29.713,Stroop Task-Lab in Psychology (Group Project),2022.2.4,59.842506490437756,
Pila,orange,Yellow,blue,b,,,,,1,15,31,15,,,,,,,,,,,,,,,,,,,,,,,,783964,001,2022-10-09_13h21.29.713,Stroop Task-Lab in Psychology (Group Project),2022.2.4,59.842506490437756,
Red,red,Laal,orange,r,,,,,2,0,32,0,,,,,,,,,,,,,,,,,,,,,,,,783964,001,2022-10-09_13h21.29.713,Stroop Task-Lab in Psychology (Group Project),2022.2.4,59.842506490437756,
Laal,blue,Red,yellow,y,,,,,2,1,33,1,,,,,,,,,,,,,,,,,,,,,,,,783964,001,2022-10-09_13h21.29.713,Stroop Task-Lab in Psychology (Group Project),2022.2.4,59.842506490437756,
Red,orange,Laal,red,o,,,,,2,2,34,2,,,,,,,,,,,,,,,,,,,,,,,,783964,001,2022-10-09_13h21.29.713,Stroop Task-Lab in Psychology (Group Project),2022.2.4,59.842506490437756,
Red,blue,Laal,yellow,b,,,,,2,3,35,3,,,,,,,,,,,,,,,,,,,,,,,,783964,001,2022-10-09_13h21.29.713,Stroop Task-Lab in Psychology (Group Project),2022.2.4,59.842506490437756,
Blue,blue,Nila,red,b,,,,,2,4,36,4,,,,,,,,,,,,,,,,,,,,,,,,783964,001,2022-10-09_13h21.29.713,Stroop Task-Lab in Psychology (Group Project),2022.2.4,59.842506490437756,
Nila,red,Blue,orange,o,,,,,2,5,37,5,,,,,,,,,,,,,,,,,,,,,,,,783964,001,2022-10-09_13h21.29.713,Stroop Task-Lab in Psychology (Group Project),2022.2.4,59.842506490437756,
Blue,red,Nila,yellow,r,,,,,2,6,38,6,,,,,,,,,,,,,,,,,,,,,,,,783964,001,2022-10-09_13h21.29.713,Stroop Task-Lab in Psychology (Group Project),2022.2.4,59.842506490437756,
Nila,orange,Blue,yellow,y,,,,,2,7,39,7,,,,,,,,,,,,,,,,,,,,,,,,783964,001,2022-10-09_13h21.29.713,Stroop Task-Lab in Psychology (Group Project),2022.2.4,59.842506490437756,
Orange,red,kesari,red,r,,,,,2,8,40,8,,,,,,,,,,,,,,,,,,,,,,,,783964,001,2022-10-09_13h21.29.713,Stroop Task-Lab in Psychology (Group Project),2022.2.4,59.842506490437756,
Kesari,blue,Orange,orange,o,,,,,2,9,41,9,,,,,,,,,,,,,,,,,,,,,,,,783964,001,2022-10-09_13h21.29.713,Stroop Task-Lab in Psychology (Group Project),2022.2.4,59.842506490437756,
Orange,yellow,Kesari,blue,y,,,,,2,10,42,10,,,,,,,,,,,,,,,,,,,,,,,,783964,001,2022-10-09_13h21.29.713,Stroop Task-Lab in Psychology (Group Project),2022.2.4,59.842506490437756,
Kesari,orange,Orange,blue,b,,,,,2,11,43,11,,,,,,,,,,,,,,,,,,,,,,,,783964,001,2022-10-09_13h21.29.713,Stroop Task-Lab in Psychology (Group Project),2022.2.4,59.842506490437756,
Yellow,red,Pila,yellow,r,,,,,2,12,44,12,,,,,,,,,,,,,,,,,,,,,,,,783964,001,2022-10-09_13h21.29.713,Stroop Task-Lab in Psychology (Group Project),2022.2.4,59.842506490437756,
Pila,blue,Yellow,orange,o,,,,,2,13,45,13,,,,,,,,,,,,,,,,,,,,,,,,783964,001,2022-10-09_13h21.29.713,Stroop Task-Lab in Psychology (Group Project),2022.2.4,59.842506490437756,
Yellow,yellow,Pila,blue,y,,,,,2,14,46,14,,,,,,,,,,,,,,,,,,,,,,,,783964,001,2022-10-09_13h21.29.713,Stroop Task-Lab in Psychology (Group Project),2022.2.4,59.842506490437756,
Pila,orange,Yellow,blue,b,,,,,2,15,47,15,,,,,,,,,,,,,,,,,,,,,,,,783964,001,2022-10-09_13h21.29.713,Stroop Task-Lab in Psychology (Group Project),2022.2.4,59.842506490437756,
Red,red,Laal,orange,r,,,,,3,0,48,0,,,,,,,,,,,,,,,,,,,,,,,,783964,001,2022-10-09_13h21.29.713,Stroop Task-Lab in Psychology (Group Project),2022.2.4,59.842506490437756,
Laal,blue,Red,yellow,y,,,,,3,1,49,1,,,,,,,,,,,,,,,,,,,,,,,,783964,001,2022-10-09_13h21.29.713,Stroop Task-Lab in Psychology (Group Project),2022.2.4,59.842506490437756,
Red,orange,Laal,red,o,,,,,3,2,50,2,,,,,,,,,,,,,,,,,,,,,,,,783964,001,2022-10-09_13h21.29.713,Stroop Task-Lab in Psychology (Group Project),2022.2.4,59.842506490437756,
Red,blue,Laal,yellow,b,,,,,3,3,51,3,,,,,,,,,,,,,,,,,,,,,,,,783964,001,2022-10-09_13h21.29.713,Stroop Task-Lab in Psychology (Group Project),2022.2.4,59.842506490437756,
Blue,blue,Nila,red,b,,,,,3,4,52,4,,,,,,,,,,,,,,,,,,,,,,,,783964,001,2022-10-09_13h21.29.713,Stroop Task-Lab in Psychology (Group Project),2022.2.4,59.842506490437756,
Nila,red,Blue,orange,o,,,,,3,5,53,5,,,,,,,,,,,,,,,,,,,,,,,,783964,001,2022-10-09_13h21.29.713,Stroop Task-Lab in Psychology (Group Project),2022.2.4,59.842506490437756,
Blue,red,Nila,yellow,r,,,,,3,6,54,6,,,,,,,,,,,,,,,,,,,,,,,,783964,001,2022-10-09_13h21.29.713,Stroop Task-Lab in Psychology (Group Project),2022.2.4,59.842506490437756,
Nila,orange,Blue,yellow,y,,,,,3,7,55,7,,,,,,,,,,,,,,,,,,,,,,,,783964,001,2022-10-09_13h21.29.713,Stroop Task-Lab in Psychology (Group Project),2022.2.4,59.842506490437756,
Orange,red,kesari,red,r,,,,,3,8,56,8,,,,,,,,,,,,,,,,,,,,,,,,783964,001,2022-10-09_13h21.29.713,Stroop Task-Lab in Psychology (Group Project),2022.2.4,59.842506490437756,
Kesari,blue,Orange,orange,o,,,,,3,9,57,9,,,,,,,,,,,,,,,,,,,,,,,,783964,001,2022-10-09_13h21.29.713,Stroop Task-Lab in Psychology (Group Project),2022.2.4,59.842506490437756,
Orange,yellow,Kesari,blue,y,,,,,3,10,58,10,,,,,,,,,,,,,,,,,,,,,,,,783964,001,2022-10-09_13h21.29.713,Stroop Task-Lab in Psychology (Group Project),2022.2.4,59.842506490437756,
Kesari,orange,Orange,blue,b,,,,,3,11,59,11,,,,,,,,,,,,,,,,,,,,,,,,783964,001,2022-10-09_13h21.29.713,Stroop Task-Lab in Psychology (Group Project),2022.2.4,59.842506490437756,
Yellow,red,Pila,yellow,r,,,,,3,12,60,12,,,,,,,,,,,,,,,,,,,,,,,,783964,001,2022-10-09_13h21.29.713,Stroop Task-Lab in Psychology (Group Project),2022.2.4,59.842506490437756,
Pila,blue,Yellow,orange,o,,,,,3,13,61,13,,,,,,,,,,,,,,,,,,,,,,,,783964,001,2022-10-09_13h21.29.713,Stroop Task-Lab in Psychology (Group Project),2022.2.4,59.842506490437756,
Yellow,yellow,Pila,blue,y,,,,,3,14,62,14,,,,,,,,,,,,,,,,,,,,,,,,783964,001,2022-10-09_13h21.29.713,Stroop Task-Lab in Psychology (Group Project),2022.2.4,59.842506490437756,
Pila,orange,Yellow,blue,b,,,,,3,15,63,15,,,,,,,,,,,,,,,,,,,,,,,,783964,001,2022-10-09_13h21.29.713,Stroop Task-Lab in Psychology (Group Project),2022.2.4,59.842506490437756,
Nila,red,Blue,orange,o,,,,,,,,,0,0,0,5,,,,,,,,257.80231509997975,258.2949331999989,258.31197699997574,259.2947940999875,259.2947940999875,260.7942303000018,261.2941478000139,o,1,0.005892600049264729,,,783964,001,2022-10-09_13h21.29.713,Stroop Task-Lab in Psychology (Group Project),2022.2.4,59.842506490437756,
Nila,orange,Blue,yellow,y,,,,,,,,,0,1,1,7,,,,,,,,261.3278848999762,261.8278085999773,261.8278085999773,262.82717720000073,262.82717720000073,264.32725370000117,264.8267812000122,y,1,0.29406919999746606,,,783964,001,2022-10-09_13h21.29.713,Stroop Task-Lab in Psychology (Group Project),2022.2.4,59.842506490437756,
Nila,orange,Blue,yellow,y,,,,,,,,,0,2,2,7,,,,,,,,265.14301340002567,265.6435489000287,265.6435489000287,266.6430200000177,266.6430200000177,268.1425191999879,268.6424689000123,y,1,0.2793190999655053,,,783964,001,2022-10-09_13h21.29.713,Stroop Task-Lab in Psychology (Group Project),2022.2.4,59.842506490437756,
Red,red,Laal,orange,r,,,,,,,,,0,3,3,0,,,,,,,,268.9456614999799,269.44220819999464,269.4591157999821,270.4420305999811,270.4420305999811,271.9416877999902,272.4414589999942,r,1,0.39916019997326657,,,783964,001,2022-10-09_13h21.29.713,Stroop Task-Lab in Psychology (Group Project),2022.2.4,59.842506490437756,
Orange,yellow,Kesari,blue,y,,,,,,,,,0,4,4,10,,,,,,,,272.86749680002686,273.3580465000123,273.3746618999867,274.3578290999867,274.3578290999867,275.8573727000039,276.35764729999937,y,1,0.06298109999625012,,,783964,001,2022-10-09_13h21.29.713,Stroop Task-Lab in Psychology (Group Project),2022.2.4,59.842506490437756,
Red,red,Laal,orange,r,,,,,,,,,0,5,5,0,,,,,,,,276.45354890002636,276.9407166999881,276.9575146000134,277.94003870000597,277.94003870000597,279.44013659999473,279.93968529999256,r,1,0.26370890001999214,,,783964,001,2022-10-09_13h21.29.713,Stroop Task-Lab in Psychology (Group Project),2022.2.4,59.842506490437756,
Yellow,red,Pila,yellow,r,,,,,,,,,0,6,6,12,,,,,,,,280.2357822000049,280.7224881000002,280.73913719999837,281.7222114999895,281.7222114999895,283.22242740000365,283.7221632000292,r,1,0.26845630002208054,,,783964,001,2022-10-09_13h21.29.713,Stroop Task-Lab in Psychology (Group Project),2022.2.4,59.842506490437756,
Blue,blue,Nila,red,b,,,,,,,,,0,7,7,4,,,,,,,,284.03435480000917,284.5220286999829,284.53861009998946,285.5218850999954,285.5218850999954,287.0210759000038,287.52098630002,b,1,0.034896900004241616,,,783964,001,2022-10-09_13h21.29.713,Stroop Task-Lab in Psychology (Group Project),2022.2.4,59.842506490437756,
Nila,red,Blue,orange,o,,,,,,,,,0,8,8,5,,,,,,,,287.58822420000797,288.08745789999375,288.08745789999375,289.08712209999794,289.08712209999794,290.58731540001463,291.0870404000161,o,1,0.20118999999249354,,,783964,001,2022-10-09_13h21.29.713,Stroop Task-Lab in Psychology (Group Project),2022.2.4,59.842506490437756,
Yellow,red,Pila,yellow,r,,,,,,,,,0,9,9,12,,,,,,,,291.33191190002253,291.82013980002375,291.83689159998903,292.81998199998634,292.81998199998634,294.31935150001664,294.8193736000103,r,1,0.1263825999922119,,,783964,001,2022-10-09_13h21.29.713,Stroop Task-Lab in Psychology (Group Project),2022.2.4,59.842506490437756,
Kesari,blue,Orange,orange,o,,,,,,,,,0,10,10,9,,,,,,,,294.9835667000152,295.46908589999657,295.4861106000026,296.4690166999935,296.4690166999935,297.9686621000292,298.4681466000038,o,1,0.3032507000025362,,,783964,001,2022-10-09_13h21.29.713,Stroop Task-Lab in Psychology (Group Project),2022.2.4,59.842506490437756,
Blue,red,Nila,yellow,r,,,,,,,,,0,11,11,6,,,,,,,,298.8133767999825,299.3016772000119,299.3183989999816,300.301269699994,300.301269699994,301.8013352000271,302.30093040002976,r,1,0.10927149996859953,,,783964,001,2022-10-09_13h21.29.713,Stroop Task-Lab in Psychology (Group Project),2022.2.4,59.842506490437756,
Red,orange,Laal,red,o,,,,,,,,,0,12,12,2,,,,,,,,302.44624949997524,302.93400529999053,302.9507181000081,303.9339469000115,303.9339469000115,305.4335761999828,305.93336570000974,o,1,0.21605430002091452,,,783964,001,2022-10-09_13h21.29.713,Stroop Task-Lab in Psychology (Group Project),2022.2.4,59.842506490437756,
Yellow,yellow,Pila,blue,y,,,,,,,,,0,13,13,14,,,,,,,,306.17849439999554,306.6666159000015,306.6835047000204,307.66627190000145,307.66627190000145,309.1662281000172,309.66611920000287,y,1,0.32381339999847114,,,783964,001,2022-10-09_13h21.29.713,Stroop Task-Lab in Psychology (Group Project),2022.2.4,59.842506490437756,
Red,blue,Laal,yellow,b,,,,,,,,,0,14,14,3,,,,,,,,310.0159437999828,310.51572600001236,310.51572600001236,311.51547530002426,311.51547530002426,313.0150907000061,313.5148508999846,b,1,0.2514902999973856,,,783964,001,2022-10-09_13h21.29.713,Stroop Task-Lab in Psychology (Group Project),2022.2.4,59.842506490437756,
Kesari,blue,Orange,orange,o,,,,,,,,,0,15,15,9,,,,,,,,313.8183056000271,314.29784279997693,314.33163760002935,315.29785550001543,315.29785550001543,316.7973911000299,317.2969012000249,o,1,0.0075443999958224595,,,783964,001,2022-10-09_13h21.29.713,Stroop Task-Lab in Psychology (Group Project),2022.2.4,59.842506490437756,
Pila,blue,Yellow,orange,o,,,,,,,,,1,0,16,13,,,,,,,,317.3303511000122,317.8303971000132,317.8303971000132,318.83033959998284,318.83033959998284,320.3299127999926,320.82966170000145,o,1,0.3088618999463506,,,783964,001,2022-10-09_13h21.29.713,Stroop Task-Lab in Psychology (Group Project),2022.2.4,59.842506490437756,
Blue,red,Nila,yellow,r,,,,,,,,,1,1,17,6,,,,,,,,321.1703873000224,321.66290230001323,321.6794921000255,322.662660699978,322.662660699978,324.16208699997514,324.6618093000143,r,1,0.10090159997344017,,,783964,001,2022-10-09_13h21.29.713,Stroop Task-Lab in Psychology (Group Project),2022.2.4,59.842506490437756,
Pila,blue,Yellow,orange,o,,,,,,,,,1,2,18,13,,,,,,,,324.7950487000053,325.2956483999733,325.2956483999733,326.2950655000168,326.2950655000168,327.7945387000218,328.29439890000504,o,1,0.27128319995244965,,,783964,001,2022-10-09_13h21.29.713,Stroop Task-Lab in Psychology (Group Project),2022.2.4,59.842506490437756,
Laal,blue,Red,yellow,y,,,,,,,,,1,3,19,1,,,,,,,,328.6066157000023,329.09406400000444,329.1108088999754,330.09388649999164,330.09388649999164,331.5938335999963,332.0939398999908,y,1,0.32729180000023916,,,783964,001,2022-10-09_13h21.29.713,Stroop Task-Lab in Psychology (Group Project),2022.2.4,59.842506490437756,
Pila,orange,Yellow,blue,b,,,,,,,,,1,4,20,15,,,,,,,,332.4543001999846,332.943138099974,332.9599120999919,333.9430533000268,333.9430533000268,335.4425004000077,335.94218830001773,b,1,0.03486909996718168,,,783964,001,2022-10-09_13h21.29.713,Stroop Task-Lab in Psychology (Group Project),2022.2.4,59.842506490437756,
Blue,blue,Nila,red,b,,,,,,,,,1,5,21,4,,,,,,,,336.01010060001863,336.50955199997406,336.50955199997406,337.5090208000038,337.5090208000038,339.00881520000985,339.508574699983,b,1,0.33359110000310466,,,783964,001,2022-10-09_13h21.29.713,Stroop Task-Lab in Psychology (Group Project),2022.2.4,59.842506490437756,
Yellow,red,Pila,yellow,r,,,,,,,,,1,6,22,12,,,,,,,,339.87347109999973,340.3586463999818,340.37501570000313,341.3580580999842,341.3580580999842,342.8577001999947,343.357248299988,r,1,0.0036577999708242714,,,783964,001,2022-10-09_13h21.29.713,Stroop Task-Lab in Psychology (Group Project),2022.2.4,59.842506490437756,
Red,blue,Laal,yellow,b,,,,,,,,,1,7,23,3,,,,,,,,343.39065720001236,343.89086990000214,343.89086990000214,344.8906501000165,344.8906501000165,346.39021709997905,346.88991339999484,b,1,0.33917079999810085,,,783964,001,2022-10-09_13h21.29.713,Stroop Task-Lab in Psychology (Group Project),2022.2.4,59.842506490437756,
Kesari,orange,Orange,blue,b,,,,,,,,,1,8,24,11,,,,,,,,347.27087990002474,347.75687969999854,347.77319859998534,348.75673810002627,348.75673810002627,350.2722056999919,350.7557998999837,b,1,0.5881371999857947,,,783964,001,2022-10-09_13h21.29.713,Stroop Task-Lab in Psychology (Group Project),2022.2.4,59.842506490437756,
Kesari,blue,Orange,orange,o,,,,,,,,,1,9,25,9,,,,,,,,351.37267259997316,351.8722044000169,351.8722044000169,352.87180100003025,352.87180100003025,354.3715795999742,354.87149390002014,o,1,0.31890050001675263,,,783964,001,2022-10-09_13h21.29.713,Stroop Task-Lab in Psychology (Group Project),2022.2.4,59.842506490437756,
Orange,red,kesari,red,r,,,,,,,,,1,10,26,8,,,,,,,,355.23377930000424,355.72128749999683,355.7379772000131,356.72105460002786,356.72105460002786,358.22042379999766,358.7203572000144,r,1,0.1186083999928087,,,783964,001,2022-10-09_13h21.29.713,Stroop Task-Lab in Psychology (Group Project),2022.2.4,59.842506490437756,
Blue,red,Nila,yellow,r,,,,,,,,,1,11,27,6,,,,,,,,358.8736217999831,359.37035179999657,359.38696470001014,360.37009420001414,360.37009420001414,361.8697550999932,362.3699572000187,r,1,0.3162567999679595,,,783964,001,2022-10-09_13h21.29.713,Stroop Task-Lab in Psychology (Group Project),2022.2.4,59.842506490437756,
Yellow,yellow,Pila,blue,y,,,,,,,,,1,12,28,14,,,,,,,,362.71376630000304,363.20234690001234,363.2190855999943,364.2021616999991,364.2021616999991,365.7024169000215,366.2021593999816,y,1,0.027237199945375323,,,783964,001,2022-10-09_13h21.29.713,Stroop Task-Lab in Psychology (Group Project),2022.2.4,59.842506490437756,
Orange,red,kesari,red,r,,,,,,,,,1,13,29,8,,,,,,,,366.2568063000217,366.7519669000176,366.7685889999848,367.7516886999947,367.7516886999947,369.25132919999305,369.75149320001947,r,1,0.280671100015752,,,783964,001,2022-10-09_13h21.29.713,Stroop Task-Lab in Psychology (Group Project),2022.2.4,59.842506490437756,
Blue,blue,Nila,red,b,,,,,,,,,1,14,30,4,,,,,,,,370.06120029999875,370.55091130000073,370.56768530001864,371.55056740000146,371.55056740000146,373.0502202999778,373.55028590001166,b,1,0.24138509994372725,,,783964,001,2022-10-09_13h21.29.713,Stroop Task-Lab in Psychology (Group Project),2022.2.4,59.842506490437756,
Orange,yellow,Kesari,blue,y,,,,,,,,,1,15,31,10,,,,,,,,373.829382899974,374.3168352000066,374.3332706000074,375.3165211000014,375.3165211000014,376.815963800007,377.31603560002986,y,1,0.30129689996829256,,,783964,001,2022-10-09_13h21.29.713,Stroop Task-Lab in Psychology (Group Project),2022.2.4,59.842506490437756,
Red,red,Laal,orange,r,,,,,,,,,2,0,32,0,,,,,,,,377.660469800001,378.1492051000241,378.16565969999647,379.1487816000008,379.1487816000008,380.6485169000225,381.1486538000172,r,1,0.17525299999397248,,,783964,001,2022-10-09_13h21.29.713,Stroop Task-Lab in Psychology (Group Project),2022.2.4,59.842506490437756,
Laal,blue,Red,yellow,y,,,,,,,,,2,1,33,1,,,,,,,,381.35690770001383,381.8482299000025,381.8649792000069,382.84827580000274,382.84827580000274,384.3478723000153,384.84773660002975,y,1,0.2193142999894917,,,783964,001,2022-10-09_13h21.29.713,Stroop Task-Lab in Psychology (Group Project),2022.2.4,59.842506490437756,
Red,orange,Laal,red,o,,,,,,,,,2,2,34,2,,,,,,,,385.09795859997394,385.5976699999883,385.5976699999883,386.597125899978,386.597125899978,388.09668999997666,388.59656380000524,o,1,0.0494751000078395,,,783964,001,2022-10-09_13h21.29.713,Stroop Task-Lab in Psychology (Group Project),2022.2.4,59.842506490437756,
Red,red,Laal,orange,r,,,,,,,,,2,3,35,0,,,,,,,,388.6631560000242,389.16301560000284,389.16301560000284,390.16288150002947,390.16288150002947,391.6627657000208,392.16260450001573,r,1,0.29891750001115724,,,783964,001,2022-10-09_13h21.29.713,Stroop Task-Lab in Psychology (Group Project),2022.2.4,59.842506490437756,
Kesari,orange,Orange,blue,b,,,,,,,,,2,4,36,11,,,,,,,,392.4802053999738,392.97888030001195,392.99577440001303,393.9786145000253,393.9786145000253,395.4782030999777,395.97780220001005,b,1,0.08682389999739826,,,783964,001,2022-10-09_13h21.29.713,Stroop Task-Lab in Psychology (Group Project),2022.2.4,59.842506490437756,
Red,orange,Laal,red,o,,,,,,,,,2,5,37,2,,,,,,,,396.0944606999983,396.594181500026,396.594181500026,397.5944535000017,397.5944535000017,399.09399259998463,399.59409369999776,o,1,0.03937050001695752,,,783964,001,2022-10-09_13h21.29.713,Stroop Task-Lab in Psychology (Group Project),2022.2.4,59.842506490437756,
Kesari,orange,Orange,blue,b,,,,,,,,,2,6,38,11,,,,,,,,399.6768852000241,400.16054680000525,400.17745640000794,401.1602722000098,401.1602722000098,402.6598271999974,403.1599126000074,b,1,0.15358570002717897,,,783964,001,2022-10-09_13h21.29.713,Stroop Task-Lab in Psychology (Group Project),2022.2.4,59.842506490437756,
Nila,orange,Blue,yellow,y,,,,,,,,,2,7,39,7,,,,,,,,403.35190730000613,403.842981600028,403.8598020999925,404.8426025999943,404.8426025999943,406.34251599997515,406.84231209999416,y,1,0.044047500006854534,,,783964,001,2022-10-09_13h21.29.713,Stroop Task-Lab in Psychology (Group Project),2022.2.4,59.842506490437756,
Blue,blue,Nila,red,b,,,,,,,,,2,8,40,4,,,,,,,,406.92117729998427,407.40894920000574,407.42516819998855,408.40841720002936,408.40841720002936,409.9084045999916,410.4080618000007,b,1,0.0148192000342533,,,783964,001,2022-10-09_13h21.29.713,Stroop Task-Lab in Psychology (Group Project),2022.2.4,59.842506490437756,
Red,orange,Laal,red,o,,,,,,,,,2,9,41,2,,,,,,,,410.45548389997566,410.94149820000166,410.9578153999755,411.94089690002147,411.94089690002147,413.44035150000127,413.9406866999925,o,1,0.1150280000292696,,,783964,001,2022-10-09_13h21.29.713,Stroop Task-Lab in Psychology (Group Project),2022.2.4,59.842506490437756,
Pila,blue,Yellow,orange,o,,,,,,,,,2,10,42,13,,,,,,,,414.084388200019,414.57359659997746,414.59026590001304,415.5736773000099,415.5736773000099,417.0729716999922,417.57239300000947,o,1,0.059895799960941076,,,783964,001,2022-10-09_13h21.29.713,Stroop Task-Lab in Psychology (Group Project),2022.2.4,59.842506490437756,
Yellow,red,Pila,yellow,r,,,,,,,,,2,11,43,12,,,,,,,,417.6670211000019,418.1564087999868,418.17273260001093,419.1558290999965,419.1558290999965,420.6553633000003,421.1553449999774,r,1,0.3628898999886587,,,783964,001,2022-10-09_13h21.29.713,Stroop Task-Lab in Psychology (Group Project),2022.2.4,59.842506490437756,
Yellow,yellow,Pila,blue,y,,,,,,,,,2,12,44,14,,,,,,,,421.5384229000192,422.03879329998745,422.03879329998745,423.03825330000836,423.03825330000836,424.5381609000033,425.0378679999849,y,1,0.02337059995625168,,,783964,001,2022-10-09_13h21.29.713,Stroop Task-Lab in Psychology (Group Project),2022.2.4,59.842506490437756,
Laal,blue,Red,yellow,y,,,,,,,,,2,13,45,1,,,,,,,,425.09946280001896,425.5877520000213,425.604222199996,426.58731350000016,426.58731350000016,428.0867972000269,428.587033400021,y,1,0.31672170001547784,,,783964,001,2022-10-09_13h21.29.713,Stroop Task-Lab in Psychology (Group Project),2022.2.4,59.842506490437756,
Nila,orange,Blue,yellow,y,,,,,,,,,2,14,46,7,,,,,,,,428.9319211000111,429.41996209998615,429.4366265999852,430.41979650000576,430.41979650000576,431.91933160001645,432.4193430999876,y,1,0.04809479997493327,,,783964,001,2022-10-09_13h21.29.713,Stroop Task-Lab in Psychology (Group Project),2022.2.4,59.842506490437756,
Blue,red,Nila,yellow,r,,,,,,,,,2,15,47,6,,,,,,,,432.49828350002645,432.9858502999996,433.0026864000247,433.9855105999741,433.9855105999741,435.48514740000246,435.9852801000234,r,1,0.06466109998291358,,,783964,001,2022-10-09_13h21.29.713,Stroop Task-Lab in Psychology (Group Project),2022.2.4,59.842506490437756,
Pila,blue,Yellow,orange,o,,,,,,,,,3,0,48,13,,,,,,,,436.08182650001254,436.5684937000042,436.5848940000287,437.5677622000221,437.5677622000221,439.0677741999971,439.56744569999864,o,1,0.2284916000207886,,,783964,001,2022-10-09_13h21.29.713,Stroop Task-Lab in Psychology (Group Project),2022.2.4,59.842506490437756,
Pila,orange,Yellow,blue,b,,,,,,,,,3,1,49,15,,,,,,,,439.81751090002945,440.31760090001626,440.31760090001626,441.31719939998584,441.31719939998584,442.81646639999235,443.3167940999847,b,1,0.009210699994582683,,,783964,001,2022-10-09_13h21.29.713,Stroop Task-Lab in Psychology (Group Project),2022.2.4,59.842506490437756,
Orange,yellow,Kesari,blue,y,,,,,,,,,3,2,50,10,,,,,,,,443.36505389999365,443.8493996000034,443.8661779999966,444.8495225000079,444.8495225000079,446.34954299998935,446.8490070999833,y,1,0.3648418999509886,,,783964,001,2022-10-09_13h21.29.713,Stroop Task-Lab in Psychology (Group Project),2022.2.4,59.842506490437756,
Orange,red,kesari,red,r,,,,,,,,,3,3,51,8,,,,,,,,447.23741459997837,447.73221609997563,447.7488078000024,448.73195320001105,448.73195320001105,450.23126580001554,450.73148309998214,r,1,0.3221746000344865,,,783964,001,2022-10-09_13h21.29.713,Stroop Task-Lab in Psychology (Group Project),2022.2.4,59.842506490437756,
Red,blue,Laal,yellow,b,,,,,,,,,3,4,52,3,,,,,,,,451.0963344000047,451.5813939999789,451.5979497000226,452.58099440002115,452.58099440002115,454.08092119998764,454.58057250001,r,0,0.1438819000031799,,,783964,001,2022-10-09_13h21.29.713,Stroop Task-Lab in Psychology (Group Project),2022.2.4,59.842506490437756,
Yellow,yellow,Pila,blue,y,,,,,,,,,3,5,53,14,,,,,,,,454.7592746000155,455.2470295000239,455.26402719999896,456.24681749998126,456.24681749998126,457.74626929999795,458.24652570002945,y,1,0.22973239998100325,,,783964,001,2022-10-09_13h21.29.713,Stroop Task-Lab in Psychology (Group Project),2022.2.4,59.842506490437756,
Red,blue,Laal,yellow,b,,,,,,,,,3,6,54,3,,,,,,,,458.50176650000503,458.9961246000021,459.01296670001466,459.99619239999447,459.99619239999447,461.49567859998206,461.99565220001386,b,1,0.35465019999537617,,,783964,001,2022-10-09_13h21.29.713,Stroop Task-Lab in Psychology (Group Project),2022.2.4,59.842506490437756,
Kesari,orange,Orange,blue,b,,,,,,,,,3,7,55,11,,,,,,,,462.3913981000078,462.8785447999835,462.89518230000976,463.87824120000005,463.87824120000005,465.3778600000078,465.8772783000022,b,1,0.6942349000019021,,,783964,001,2022-10-09_13h21.29.713,Stroop Task-Lab in Psychology (Group Project),2022.2.4,59.842506490437756,
Pila,orange,Yellow,blue,b,,,,,,,,,3,8,56,15,,,,,,,,466.60846339998534,467.0941361000296,467.11103179998463,468.0938343000016,468.0938343000016,469.5937454000232,470.0929235999938,b,1,0.34424200002104044,,,783964,001,2022-10-09_13h21.29.713,Stroop Task-Lab in Psychology (Group Project),2022.2.4,59.842506490437756,
Nila,red,Blue,orange,o,,,,,,,,,3,9,57,5,,,,,,,,470.4715284000267,470.96012960001826,470.9765258000116,471.95965510001406,471.95965510001406,473.459323099989,473.95953039999586,o,1,0.13243619998684153,,,783964,001,2022-10-09_13h21.29.713,Stroop Task-Lab in Psychology (Group Project),2022.2.4,59.842506490437756,
Pila,orange,Yellow,blue,b,,,,,,,,,3,10,58,15,,,,,,,,474.1205996000208,474.6089138999814,474.62577430001693,475.6089251000085,475.6089251000085,477.10869830002775,477.60826750000706,b,1,0.41170080000301823,,,783964,001,2022-10-09_13h21.29.713,Stroop Task-Lab in Psychology (Group Project),2022.2.4,59.842506490437756,
Nila,red,Blue,orange,o,,,,,,,,,3,11,59,5,,,,,,,,478.05389260000084,478.5411983000231,478.55794420000166,479.5410671000136,479.5410671000136,481.041006000014,481.5402405000059,o,1,0.24865690001752228,,,783964,001,2022-10-09_13h21.29.713,Stroop Task-Lab in Psychology (Group Project),2022.2.4,59.842506490437756,
Orange,red,kesari,red,r,,,,,,,,,3,12,60,8,,,,,,,,481.82205750001594,482.3070650000009,482.32378829998197,483.3071380999754,483.3071380999754,484.80645710002864,485.3066624000203,r,1,0.4471025000093505,,,783964,001,2022-10-09_13h21.29.713,Stroop Task-Lab in Psychology (Group Project),2022.2.4,59.842506490437756,
Orange,yellow,Kesari,blue,y,,,,,,,,,3,13,61,10,,,,,,,,485.7726533000241,486.2563566999743,486.2728015999892,487.2559119000216,487.2559119000216,488.75571769999806,489.2717014999944,y,1,0.398390999995172,,,783964,001,2022-10-09_13h21.29.713,Stroop Task-Lab in Psychology (Group Project),2022.2.4,59.842506490437756,
Kesari,blue,Orange,orange,o,,,,,,,,,3,14,62,9,,,,,,,,489.6886395000038,490.1879878999898,490.1879878999898,491.1878942999756,491.1878942999756,492.68776840000646,493.18741860002046,o,1,0.13325209997128695,,,783964,001,2022-10-09_13h21.29.713,Stroop Task-Lab in Psychology (Group Project),2022.2.4,59.842506490437756,
Laal,blue,Red,yellow,y,,,,,,,,,3,15,63,1,,,,,,,,493.33734410000034,493.8372774000163,493.8372774000163,494.83704990003025,494.83704990003025,496.3366343000089,496.8367124000215,y,1,0.41922930005239323,,,783964,001,2022-10-09_13h21.29.713,Stroop Task-Lab in Psychology (Group Project),2022.2.4,59.842506490437756,
Red,red,Laal,orange,r,,,,,,,,,,,,,0,0,0,0,,,,,,,,,,,,,,,,783964,001,2022-10-09_13h21.29.713,Stroop Task-Lab in Psychology (Group Project),2022.2.4,59.842506490437756,
Laal,blue,Red,yellow,y,,,,,,,,,,,,,0,1,1,1,,,,,,,,,,,,,,,,783964,001,2022-10-09_13h21.29.713,Stroop Task-Lab in Psychology (Group Project),2022.2.4,59.842506490437756,
Red,orange,Laal,red,o,,,,,,,,,,,,,0,2,2,2,,,,,,,,,,,,,,,,783964,001,2022-10-09_13h21.29.713,Stroop Task-Lab in Psychology (Group Project),2022.2.4,59.842506490437756,
Red,blue,Laal,yellow,b,,,,,,,,,,,,,0,3,3,3,,,,,,,,,,,,,,,,783964,001,2022-10-09_13h21.29.713,Stroop Task-Lab in Psychology (Group Project),2022.2.4,59.842506490437756,
Blue,blue,Nila,red,b,,,,,,,,,,,,,0,4,4,4,,,,,,,,,,,,,,,,783964,001,2022-10-09_13h21.29.713,Stroop Task-Lab in Psychology (Group Project),2022.2.4,59.842506490437756,
Nila,red,Blue,orange,o,,,,,,,,,,,,,0,5,5,5,,,,,,,,,,,,,,,,783964,001,2022-10-09_13h21.29.713,Stroop Task-Lab in Psychology (Group Project),2022.2.4,59.842506490437756,
Blue,red,Nila,yellow,r,,,,,,,,,,,,,0,6,6,6,,,,,,,,,,,,,,,,783964,001,2022-10-09_13h21.29.713,Stroop Task-Lab in Psychology (Group Project),2022.2.4,59.842506490437756,
Nila,orange,Blue,yellow,y,,,,,,,,,,,,,0,7,7,7,,,,,,,,,,,,,,,,783964,001,2022-10-09_13h21.29.713,Stroop Task-Lab in Psychology (Group Project),2022.2.4,59.842506490437756,
Orange,red,kesari,red,r,,,,,,,,,,,,,0,8,8,8,,,,,,,,,,,,,,,,783964,001,2022-10-09_13h21.29.713,Stroop Task-Lab in Psychology (Group Project),2022.2.4,59.842506490437756,
Kesari,blue,Orange,orange,o,,,,,,,,,,,,,0,9,9,9,,,,,,,,,,,,,,,,783964,001,2022-10-09_13h21.29.713,Stroop Task-Lab in Psychology (Group Project),2022.2.4,59.842506490437756,
Orange,yellow,Kesari,blue,y,,,,,,,,,,,,,0,10,10,10,,,,,,,,,,,,,,,,783964,001,2022-10-09_13h21.29.713,Stroop Task-Lab in Psychology (Group Project),2022.2.4,59.842506490437756,
Kesari,orange,Orange,blue,b,,,,,,,,,,,,,0,11,11,11,,,,,,,,,,,,,,,,783964,001,2022-10-09_13h21.29.713,Stroop Task-Lab in Psychology (Group Project),2022.2.4,59.842506490437756,
Yellow,red,Pila,yellow,r,,,,,,,,,,,,,0,12,12,12,,,,,,,,,,,,,,,,783964,001,2022-10-09_13h21.29.713,Stroop Task-Lab in Psychology (Group Project),2022.2.4,59.842506490437756,
Pila,blue,Yellow,orange,o,,,,,,,,,,,,,0,13,13,13,,,,,,,,,,,,,,,,783964,001,2022-10-09_13h21.29.713,Stroop Task-Lab in Psychology (Group Project),2022.2.4,59.842506490437756,
Yellow,yellow,Pila,blue,y,,,,,,,,,,,,,0,14,14,14,,,,,,,,,,,,,,,,783964,001,2022-10-09_13h21.29.713,Stroop Task-Lab in Psychology (Group Project),2022.2.4,59.842506490437756,
Pila,orange,Yellow,blue,b,,,,,,,,,,,,,0,15,15,15,,,,,,,,,,,,,,,,783964,001,2022-10-09_13h21.29.713,Stroop Task-Lab in Psychology (Group Project),2022.2.4,59.842506490437756,
Red,red,Laal,orange,r,,,,,,,,,,,,,1,0,16,0,,,,,,,,,,,,,,,,783964,001,2022-10-09_13h21.29.713,Stroop Task-Lab in Psychology (Group Project),2022.2.4,59.842506490437756,
Laal,blue,Red,yellow,y,,,,,,,,,,,,,1,1,17,1,,,,,,,,,,,,,,,,783964,001,2022-10-09_13h21.29.713,Stroop Task-Lab in Psychology (Group Project),2022.2.4,59.842506490437756,
Red,orange,Laal,red,o,,,,,,,,,,,,,1,2,18,2,,,,,,,,,,,,,,,,783964,001,2022-10-09_13h21.29.713,Stroop Task-Lab in Psychology (Group Project),2022.2.4,59.842506490437756,
Red,blue,Laal,yellow,b,,,,,,,,,,,,,1,3,19,3,,,,,,,,,,,,,,,,783964,001,2022-10-09_13h21.29.713,Stroop Task-Lab in Psychology (Group Project),2022.2.4,59.842506490437756,
Blue,blue,Nila,red,b,,,,,,,,,,,,,1,4,20,4,,,,,,,,,,,,,,,,783964,001,2022-10-09_13h21.29.713,Stroop Task-Lab in Psychology (Group Project),2022.2.4,59.842506490437756,
Nila,red,Blue,orange,o,,,,,,,,,,,,,1,5,21,5,,,,,,,,,,,,,,,,783964,001,2022-10-09_13h21.29.713,Stroop Task-Lab in Psychology (Group Project),2022.2.4,59.842506490437756,
Blue,red,Nila,yellow,r,,,,,,,,,,,,,1,6,22,6,,,,,,,,,,,,,,,,783964,001,2022-10-09_13h21.29.713,Stroop Task-Lab in Psychology (Group Project),2022.2.4,59.842506490437756,
Nila,orange,Blue,yellow,y,,,,,,,,,,,,,1,7,23,7,,,,,,,,,,,,,,,,783964,001,2022-10-09_13h21.29.713,Stroop Task-Lab in Psychology (Group Project),2022.2.4,59.842506490437756,
Orange,red,kesari,red,r,,,,,,,,,,,,,1,8,24,8,,,,,,,,,,,,,,,,783964,001,2022-10-09_13h21.29.713,Stroop Task-Lab in Psychology (Group Project),2022.2.4,59.842506490437756,
Kesari,blue,Orange,orange,o,,,,,,,,,,,,,1,9,25,9,,,,,,,,,,,,,,,,783964,001,2022-10-09_13h21.29.713,Stroop Task-Lab in Psychology (Group Project),2022.2.4,59.842506490437756,
Orange,yellow,Kesari,blue,y,,,,,,,,,,,,,1,10,26,10,,,,,,,,,,,,,,,,783964,001,2022-10-09_13h21.29.713,Stroop Task-Lab in Psychology (Group Project),2022.2.4,59.842506490437756,
Kesari,orange,Orange,blue,b,,,,,,,,,,,,,1,11,27,11,,,,,,,,,,,,,,,,783964,001,2022-10-09_13h21.29.713,Stroop Task-Lab in Psychology (Group Project),2022.2.4,59.842506490437756,
Yellow,red,Pila,yellow,r,,,,,,,,,,,,,1,12,28,12,,,,,,,,,,,,,,,,783964,001,2022-10-09_13h21.29.713,Stroop Task-Lab in Psychology (Group Project),2022.2.4,59.842506490437756,
Pila,blue,Yellow,orange,o,,,,,,,,,,,,,1,13,29,13,,,,,,,,,,,,,,,,783964,001,2022-10-09_13h21.29.713,Stroop Task-Lab in Psychology (Group Project),2022.2.4,59.842506490437756,
Yellow,yellow,Pila,blue,y,,,,,,,,,,,,,1,14,30,14,,,,,,,,,,,,,,,,783964,001,2022-10-09_13h21.29.713,Stroop Task-Lab in Psychology (Group Project),2022.2.4,59.842506490437756,
Pila,orange,Yellow,blue,b,,,,,,,,,,,,,1,15,31,15,,,,,,,,,,,,,,,,783964,001,2022-10-09_13h21.29.713,Stroop Task-Lab in Psychology (Group Project),2022.2.4,59.842506490437756,
Red,red,Laal,orange,r,,,,,,,,,,,,,2,0,32,0,,,,,,,,,,,,,,,,783964,001,2022-10-09_13h21.29.713,Stroop Task-Lab in Psychology (Group Project),2022.2.4,59.842506490437756,
Laal,blue,Red,yellow,y,,,,,,,,,,,,,2,1,33,1,,,,,,,,,,,,,,,,783964,001,2022-10-09_13h21.29.713,Stroop Task-Lab in Psychology (Group Project),2022.2.4,59.842506490437756,
Red,orange,Laal,red,o,,,,,,,,,,,,,2,2,34,2,,,,,,,,,,,,,,,,783964,001,2022-10-09_13h21.29.713,Stroop Task-Lab in Psychology (Group Project),2022.2.4,59.842506490437756,
Red,blue,Laal,yellow,b,,,,,,,,,,,,,2,3,35,3,,,,,,,,,,,,,,,,783964,001,2022-10-09_13h21.29.713,Stroop Task-Lab in Psychology (Group Project),2022.2.4,59.842506490437756,
Blue,blue,Nila,red,b,,,,,,,,,,,,,2,4,36,4,,,,,,,,,,,,,,,,783964,001,2022-10-09_13h21.29.713,Stroop Task-Lab in Psychology (Group Project),2022.2.4,59.842506490437756,
Nila,red,Blue,orange,o,,,,,,,,,,,,,2,5,37,5,,,,,,,,,,,,,,,,783964,001,2022-10-09_13h21.29.713,Stroop Task-Lab in Psychology (Group Project),2022.2.4,59.842506490437756,
Blue,red,Nila,yellow,r,,,,,,,,,,,,,2,6,38,6,,,,,,,,,,,,,,,,783964,001,2022-10-09_13h21.29.713,Stroop Task-Lab in Psychology (Group Project),2022.2.4,59.842506490437756,
Nila,orange,Blue,yellow,y,,,,,,,,,,,,,2,7,39,7,,,,,,,,,,,,,,,,783964,001,2022-10-09_13h21.29.713,Stroop Task-Lab in Psychology (Group Project),2022.2.4,59.842506490437756,
Orange,red,kesari,red,r,,,,,,,,,,,,,2,8,40,8,,,,,,,,,,,,,,,,783964,001,2022-10-09_13h21.29.713,Stroop Task-Lab in Psychology (Group Project),2022.2.4,59.842506490437756,
Kesari,blue,Orange,orange,o,,,,,,,,,,,,,2,9,41,9,,,,,,,,,,,,,,,,783964,001,2022-10-09_13h21.29.713,Stroop Task-Lab in Psychology (Group Project),2022.2.4,59.842506490437756,
Orange,yellow,Kesari,blue,y,,,,,,,,,,,,,2,10,42,10,,,,,,,,,,,,,,,,783964,001,2022-10-09_13h21.29.713,Stroop Task-Lab in Psychology (Group Project),2022.2.4,59.842506490437756,
Kesari,orange,Orange,blue,b,,,,,,,,,,,,,2,11,43,11,,,,,,,,,,,,,,,,783964,001,2022-10-09_13h21.29.713,Stroop Task-Lab in Psychology (Group Project),2022.2.4,59.842506490437756,
Yellow,red,Pila,yellow,r,,,,,,,,,,,,,2,12,44,12,,,,,,,,,,,,,,,,783964,001,2022-10-09_13h21.29.713,Stroop Task-Lab in Psychology (Group Project),2022.2.4,59.842506490437756,
Pila,blue,Yellow,orange,o,,,,,,,,,,,,,2,13,45,13,,,,,,,,,,,,,,,,783964,001,2022-10-09_13h21.29.713,Stroop Task-Lab in Psychology (Group Project),2022.2.4,59.842506490437756,
Yellow,yellow,Pila,blue,y,,,,,,,,,,,,,2,14,46,14,,,,,,,,,,,,,,,,783964,001,2022-10-09_13h21.29.713,Stroop Task-Lab in Psychology (Group Project),2022.2.4,59.842506490437756,
Pila,orange,Yellow,blue,b,,,,,,,,,,,,,2,15,47,15,,,,,,,,,,,,,,,,783964,001,2022-10-09_13h21.29.713,Stroop Task-Lab in Psychology (Group Project),2022.2.4,59.842506490437756,
Red,red,Laal,orange,r,,,,,,,,,,,,,3,0,48,0,,,,,,,,,,,,,,,,783964,001,2022-10-09_13h21.29.713,Stroop Task-Lab in Psychology (Group Project),2022.2.4,59.842506490437756,
Laal,blue,Red,yellow,y,,,,,,,,,,,,,3,1,49,1,,,,,,,,,,,,,,,,783964,001,2022-10-09_13h21.29.713,Stroop Task-Lab in Psychology (Group Project),2022.2.4,59.842506490437756,
Red,orange,Laal,red,o,,,,,,,,,,,,,3,2,50,2,,,,,,,,,,,,,,,,783964,001,2022-10-09_13h21.29.713,Stroop Task-Lab in Psychology (Group Project),2022.2.4,59.842506490437756,
Red,blue,Laal,yellow,b,,,,,,,,,,,,,3,3,51,3,,,,,,,,,,,,,,,,783964,001,2022-10-09_13h21.29.713,Stroop Task-Lab in Psychology (Group Project),2022.2.4,59.842506490437756,
Blue,blue,Nila,red,b,,,,,,,,,,,,,3,4,52,4,,,,,,,,,,,,,,,,783964,001,2022-10-09_13h21.29.713,Stroop Task-Lab in Psychology (Group Project),2022.2.4,59.842506490437756,
Nila,red,Blue,orange,o,,,,,,,,,,,,,3,5,53,5,,,,,,,,,,,,,,,,783964,001,2022-10-09_13h21.29.713,Stroop Task-Lab in Psychology (Group Project),2022.2.4,59.842506490437756,
Blue,red,Nila,yellow,r,,,,,,,,,,,,,3,6,54,6,,,,,,,,,,,,,,,,783964,001,2022-10-09_13h21.29.713,Stroop Task-Lab in Psychology (Group Project),2022.2.4,59.842506490437756,
Nila,orange,Blue,yellow,y,,,,,,,,,,,,,3,7,55,7,,,,,,,,,,,,,,,,783964,001,2022-10-09_13h21.29.713,Stroop Task-Lab in Psychology (Group Project),2022.2.4,59.842506490437756,
Orange,red,kesari,red,r,,,,,,,,,,,,,3,8,56,8,,,,,,,,,,,,,,,,783964,001,2022-10-09_13h21.29.713,Stroop Task-Lab in Psychology (Group Project),2022.2.4,59.842506490437756,
Kesari,blue,Orange,orange,o,,,,,,,,,,,,,3,9,57,9,,,,,,,,,,,,,,,,783964,001,2022-10-09_13h21.29.713,Stroop Task-Lab in Psychology (Group Project),2022.2.4,59.842506490437756,
Orange,yellow,Kesari,blue,y,,,,,,,,,,,,,3,10,58,10,,,,,,,,,,,,,,,,783964,001,2022-10-09_13h21.29.713,Stroop Task-Lab in Psychology (Group Project),2022.2.4,59.842506490437756,
Kesari,orange,Orange,blue,b,,,,,,,,,,,,,3,11,59,11,,,,,,,,,,,,,,,,783964,001,2022-10-09_13h21.29.713,Stroop Task-Lab in Psychology (Group Project),2022.2.4,59.842506490437756,
Yellow,red,Pila,yellow,r,,,,,,,,,,,,,3,12,60,12,,,,,,,,,,,,,,,,783964,001,2022-10-09_13h21.29.713,Stroop Task-Lab in Psychology (Group Project),2022.2.4,59.842506490437756,
Pila,blue,Yellow,orange,o,,,,,,,,,,,,,3,13,61,13,,,,,,,,,,,,,,,,783964,001,2022-10-09_13h21.29.713,Stroop Task-Lab in Psychology (Group Project),2022.2.4,59.842506490437756,
Yellow,yellow,Pila,blue,y,,,,,,,,,,,,,3,14,62,14,,,,,,,,,,,,,,,,783964,001,2022-10-09_13h21.29.713,Stroop Task-Lab in Psychology (Group Project),2022.2.4,59.842506490437756,
Pila,orange,Yellow,blue,b,,,,,,,,,,,,,3,15,63,15,,,,,,,,,,,,,,,,783964,001,2022-10-09_13h21.29.713,Stroop Task-Lab in Psychology (Group Project),2022.2.4,59.842506490437756,
,,,,,,,,,,,,,,,,,,,,,,,,,,,,,,,,,,497.3477555999998,498.3531842000084,,,,,,,
